trial_type,trial_index,time_elapsed,internal_node_id,subject,keyPair,subjectOS,subjectBrowser,rt,stimulus,button_pressed,responses,question_order,whichWindow,checkRatingAccuracy,checkKeyYesAccuracy,checkKeyNoAccuracy,key_press,faceList,block,emotionRating,trial,face,model,ethnicity,sex,expression,mask,rateEmotion,personRating,ratePerson,whichQ,ipsos1,ipsos2_0,ipsos3_0,ipsos4,ipsos5_0,INDCOL1,INDCOL2,INDCOL3,INDCOL4,INDCOL5,INDCOL6,INDCOL7,INDCOL8,INDCOL9,INDCOL10,INDCOL11,INDCOL12,INDCOL13,INDCOL14,BEQS1,BEQS2,BEQS3,BEQS4,BEQS5,BEQS6,BFI1,BFI2,BFI3,BFI4,BFI5,BFI6,BFI7,BFI8,BFI9,BFI10,BFI11,BFI12,BFI13,BFI14,BFI15,BFI16,BFI17,BFI18,BFI19,BFI20,BFI21,BFI22,BFI23,BFI24,BFI25,BFI26,BFI27,BFI28,BFI29,BFI30,BFI31,BFI32,BFI33,BFI34,BFI35,BFI36,BFI37,BFI38,BFI39,BFI40,BFI41,BFI42,BFI43,BFI44,AQC1,AQC2,AQC3,AQC4,AQC5,AQC6,AQC7,AQC8,AQC9,AQC10,IRQ1,IRQ2,IRQ3,IRQ4,IRQ5,IRQ6,IRQ7,IRQ8,IRQ9,IRQ10,IRQ11,IRQ12,IRQ13,IRQ14,IRQ15,IRQ16,attentionCheck,age,gender,ethnicity0,politicalIdeology
pavlovia,0,40,0.0-0.0,mr81dhy9r5lxu8r,0,Windows,Chrome,NA,,NA,,,,NA,NA,NA,NA,NA,NA,,NA,,,,,,,NA,,NA,,,,,,,NA,NA,NA,NA,NA,NA,NA,NA,NA,NA,NA,NA,NA,NA,NA,NA,NA,NA,NA,NA,NA,NA,NA,NA,NA,NA,NA,NA,NA,NA,NA,NA,NA,NA,NA,NA,NA,NA,NA,NA,NA,NA,NA,NA,NA,NA,NA,NA,NA,NA,NA,NA,NA,NA,NA,NA,NA,NA,NA,NA,NA,NA,NA,NA,NA,NA,NA,NA,NA,NA,NA,NA,NA,NA,NA,NA,NA,NA,NA,NA,NA,NA,NA,NA,NA,NA,NA,NA,NA,NA,NA,NA,,,NA
html-button-response,1,2318,0.0-1.0-0.0,mr81dhy9r5lxu8r,0,Windows,Chrome,2274.9999999068677,<p>Welcome to the experiment! Please click continue to begin.</p>,0,,,,NA,NA,NA,NA,NA,NA,,NA,,,,,,,NA,,NA,,,,,,,NA,NA,NA,NA,NA,NA,NA,NA,NA,NA,NA,NA,NA,NA,NA,NA,NA,NA,NA,NA,NA,NA,NA,NA,NA,NA,NA,NA,NA,NA,NA,NA,NA,NA,NA,NA,NA,NA,NA,NA,NA,NA,NA,NA,NA,NA,NA,NA,NA,NA,NA,NA,NA,NA,NA,NA,NA,NA,NA,NA,NA,NA,NA,NA,NA,NA,NA,NA,NA,NA,NA,NA,NA,NA,NA,NA,NA,NA,NA,NA,NA,NA,NA,NA,NA,NA,NA,NA,NA,NA,NA,NA,,,NA
html-button-response,2,4897,0.0-1.0-1.0,mr81dhy9r5lxu8r,0,Windows,Chrome,2075.0000001862645,"<p>On the next screen, you will see a generic consent form approved by Temple University Institutional Review Board. Your consent to that form is required to participate.</p> <p>Please note that the study will actually only last 30 minutes. Please also disregard any references to students.</p>",0,,,,NA,NA,NA,NA,NA,NA,,NA,,,,,,,NA,,NA,,,,,,,NA,NA,NA,NA,NA,NA,NA,NA,NA,NA,NA,NA,NA,NA,NA,NA,NA,NA,NA,NA,NA,NA,NA,NA,NA,NA,NA,NA,NA,NA,NA,NA,NA,NA,NA,NA,NA,NA,NA,NA,NA,NA,NA,NA,NA,NA,NA,NA,NA,NA,NA,NA,NA,NA,NA,NA,NA,NA,NA,NA,NA,NA,NA,NA,NA,NA,NA,NA,NA,NA,NA,NA,NA,NA,NA,NA,NA,NA,NA,NA,NA,NA,NA,NA,NA,NA,NA,NA,NA,NA,NA,NA,,,NA
html-button-response,3,7717,0.0-1.0-2.0,mr81dhy9r5lxu8r,0,Windows,Chrome,2317.0000000391155,"<p><b><u>ONLINE CONSENT FORM (PAGE 1 OF 3)</u></b><p><p><b>Why you are being invited to take part in a research study?</b></p><p>We invite you to partake in this research study to understand how attitudes shape decisions related to attractiveness.</p><p><b>Who can I talk to?</b></p><p>If you have questions, concerns, or complaints, or think the research has hurt you, contact the research team at vinod.venkatraman@temple.edu or call 215-204-8177. Our physical address is Alter Hall A562, 1801 Liacouras Walk, Philadelphia, PA 19122.</p><p>This research has been reviewed and approved by an Institutional Review Board. You may talk to them at (215) 707-3390 or e-mail them at: irb@temple.edu for any of the following:</p><p><ul style='list-style-type:none'><li>Your questions, concerns, or complaints are not being answered by the research team.</li><li>You cannot reach the research team.</li><li>You want to talk to someone besides the research team.</li><li>You have questions about your rights as a research subject.</li><li>You want to get information or provide input about this research.</li></ul><p>",0,,,,NA,NA,NA,NA,NA,NA,,NA,,,,,,,NA,,NA,,,,,,,NA,NA,NA,NA,NA,NA,NA,NA,NA,NA,NA,NA,NA,NA,NA,NA,NA,NA,NA,NA,NA,NA,NA,NA,NA,NA,NA,NA,NA,NA,NA,NA,NA,NA,NA,NA,NA,NA,NA,NA,NA,NA,NA,NA,NA,NA,NA,NA,NA,NA,NA,NA,NA,NA,NA,NA,NA,NA,NA,NA,NA,NA,NA,NA,NA,NA,NA,NA,NA,NA,NA,NA,NA,NA,NA,NA,NA,NA,NA,NA,NA,NA,NA,NA,NA,NA,NA,NA,NA,NA,NA,NA,,,NA
html-button-response,4,11054,0.0-1.0-3.0,mr81dhy9r5lxu8r,0,Windows,Chrome,2830.000000074506,"<p><b><u>ONLINE CONSENT FORM (PAGE 2 OF 3)</u></b><p><p><b>Why are we doing this research?</b></p><p>The purpose of the research is to better understand how different attitudes shape people's behavior and decision preferences.</p><p><b>How long will the research last?</b></p><p>Your participation in this study will last for one session with the duration of no longer than 1 hour.</p><p><b>What happens if I say yes, I want to be in this research?</b></p><p>After your consent to participate, you will be asked to indicate your preferences in a series of trials. The specific details and instructions for the task will be communicated by the experimenter prior to the start of the study. Please follow these instructions to the best of your ability. There will be attention checks throughout the study to ensure that you are paying attention and the data collected is valid.</p><p>We will also collect basic demographics from you such as income, education, purchasing behavior, political and altruistic attitudes, and decision-making behavior (such as sensitivity to risk). Remember that all the decisions and choices that you make during this study are your own opinions and preferences. There are no right or wrong answers. Please answer honestly and to the best of your abilities. Participating in this study is no more risky than using an everyday computer.</p>",0,,,,NA,NA,NA,NA,NA,NA,,NA,,,,,,,NA,,NA,,,,,,,NA,NA,NA,NA,NA,NA,NA,NA,NA,NA,NA,NA,NA,NA,NA,NA,NA,NA,NA,NA,NA,NA,NA,NA,NA,NA,NA,NA,NA,NA,NA,NA,NA,NA,NA,NA,NA,NA,NA,NA,NA,NA,NA,NA,NA,NA,NA,NA,NA,NA,NA,NA,NA,NA,NA,NA,NA,NA,NA,NA,NA,NA,NA,NA,NA,NA,NA,NA,NA,NA,NA,NA,NA,NA,NA,NA,NA,NA,NA,NA,NA,NA,NA,NA,NA,NA,NA,NA,NA,NA,NA,NA,,,NA
html-button-response,5,14517,0.0-1.0-4.0,mr81dhy9r5lxu8r,0,Windows,Chrome,2957.999999867752,"<p><b><u>ONLINE CONSENT FORM (PAGE 3 OF 3)</u></b><p><p><b>What happens if I say no, I do not want to be in this research?</b></p><p>You may decide not to take part in the research and it will not be held against you. It will in no way affect your relationship with the study investigators.</p><p><b>What happens if I say yes, but I change my mind later?</b></p><p>If you agree to take part in the research, you can stop at any time, and it will not be held against you. Withdrawal from study or failure to participate will not have any academic consequences to you if you are a student. Furthermore, if you are a student, there are no risks to your student career.</p><p><b>What happens to the information we collect?</b></p><p>Efforts will be made to limit the disclosure of your personal information, including research study records, to people who have a need to review this information. However, the study team cannot promise complete secrecy. For example, although the study team has put in safeguards to protect your information, there is always a potential risk of loss of confidentiality. Temple University IRB may inspect and copy your information to make sure that the study team is following the rules and regulations regarding research and the protection of human subjects.</p><p><b>Stipend/Reimbursement</b></p><p>If you agree to take part in this research, you will be compensated through the survey panel (e.g., mTurk, Qualtrics, SONA) through which you registered, after you complete the survey. However, you should have been informed about the estimated duration and exact compensation prior to registering for the study on the corresponding online forum. If not, you may discontinue at this point.</p>",0,,,,NA,NA,NA,NA,NA,NA,,NA,,,,,,,NA,,NA,,,,,,,NA,NA,NA,NA,NA,NA,NA,NA,NA,NA,NA,NA,NA,NA,NA,NA,NA,NA,NA,NA,NA,NA,NA,NA,NA,NA,NA,NA,NA,NA,NA,NA,NA,NA,NA,NA,NA,NA,NA,NA,NA,NA,NA,NA,NA,NA,NA,NA,NA,NA,NA,NA,NA,NA,NA,NA,NA,NA,NA,NA,NA,NA,NA,NA,NA,NA,NA,NA,NA,NA,NA,NA,NA,NA,NA,NA,NA,NA,NA,NA,NA,NA,NA,NA,NA,NA,NA,NA,NA,NA,NA,NA,,,NA
html-button-response,6,16647,0.0-1.0-5.0,mr81dhy9r5lxu8r,0,Windows,Chrome,1627.000000094995,"<p>By clicking <b>'Continue'</b> below, you <b>consent</b> to participating in this research.</p>",0,,,,NA,NA,NA,NA,NA,NA,,NA,,,,,,,NA,,NA,,,,,,,NA,NA,NA,NA,NA,NA,NA,NA,NA,NA,NA,NA,NA,NA,NA,NA,NA,NA,NA,NA,NA,NA,NA,NA,NA,NA,NA,NA,NA,NA,NA,NA,NA,NA,NA,NA,NA,NA,NA,NA,NA,NA,NA,NA,NA,NA,NA,NA,NA,NA,NA,NA,NA,NA,NA,NA,NA,NA,NA,NA,NA,NA,NA,NA,NA,NA,NA,NA,NA,NA,NA,NA,NA,NA,NA,NA,NA,NA,NA,NA,NA,NA,NA,NA,NA,NA,NA,NA,NA,NA,NA,NA,,,NA
html-button-response,7,19402,0.0-2.0-0.0,mr81dhy9r5lxu8r,0,Windows,Chrome,2239.0000000596046,"<p>In the first part of the experiment, you will view a series of faces and rate whether or not each face looks angry, disgusted, fearful, happy, sad, or surprised.</p><p>Sometimes you may be able to see the entire face. Other times you may only be able to see the top or the bottom half of the face.</p>",0,,,,NA,NA,NA,NA,NA,NA,,NA,,,,,,,NA,,NA,,,,,,,NA,NA,NA,NA,NA,NA,NA,NA,NA,NA,NA,NA,NA,NA,NA,NA,NA,NA,NA,NA,NA,NA,NA,NA,NA,NA,NA,NA,NA,NA,NA,NA,NA,NA,NA,NA,NA,NA,NA,NA,NA,NA,NA,NA,NA,NA,NA,NA,NA,NA,NA,NA,NA,NA,NA,NA,NA,NA,NA,NA,NA,NA,NA,NA,NA,NA,NA,NA,NA,NA,NA,NA,NA,NA,NA,NA,NA,NA,NA,NA,NA,NA,NA,NA,NA,NA,NA,NA,NA,NA,NA,NA,,,NA
html-button-response,8,26168,0.0-2.0-1.0,mr81dhy9r5lxu8r,0,Windows,Chrome,6262.000000104308,"<p>Before viewing each face, you will briefly see a + sign display in the center of the screen.</p><p>You will then see a face appear and you will press one of two keys to indicate whether or not the face is showing a certain emotion.</p>",0,,,,NA,NA,NA,NA,NA,NA,,NA,,,,,,,NA,,NA,,,,,,,NA,NA,NA,NA,NA,NA,NA,NA,NA,NA,NA,NA,NA,NA,NA,NA,NA,NA,NA,NA,NA,NA,NA,NA,NA,NA,NA,NA,NA,NA,NA,NA,NA,NA,NA,NA,NA,NA,NA,NA,NA,NA,NA,NA,NA,NA,NA,NA,NA,NA,NA,NA,NA,NA,NA,NA,NA,NA,NA,NA,NA,NA,NA,NA,NA,NA,NA,NA,NA,NA,NA,NA,NA,NA,NA,NA,NA,NA,NA,NA,NA,NA,NA,NA,NA,NA,NA,NA,NA,NA,NA,NA,,,NA
html-button-response,9,29648,0.0-2.0-2.0,mr81dhy9r5lxu8r,0,Windows,Chrome,2978.0000001192093,"<p>Please respond as quickly and accurately as possible when you see each face appear.</p><p>Once the computer has logged your response, the face will disappear and you will see the next + sign display.</p>",0,,,,NA,NA,NA,NA,NA,NA,,NA,,,,,,,NA,,NA,,,,,,,NA,NA,NA,NA,NA,NA,NA,NA,NA,NA,NA,NA,NA,NA,NA,NA,NA,NA,NA,NA,NA,NA,NA,NA,NA,NA,NA,NA,NA,NA,NA,NA,NA,NA,NA,NA,NA,NA,NA,NA,NA,NA,NA,NA,NA,NA,NA,NA,NA,NA,NA,NA,NA,NA,NA,NA,NA,NA,NA,NA,NA,NA,NA,NA,NA,NA,NA,NA,NA,NA,NA,NA,NA,NA,NA,NA,NA,NA,NA,NA,NA,NA,NA,NA,NA,NA,NA,NA,NA,NA,NA,NA,,,NA
html-button-response,10,34881,0.0-2.0-3.0,mr81dhy9r5lxu8r,0,Windows,Chrome,4717.999999877065,<p>You will complete six rounds of the task and each round will last about 2-3 minutes.</p><p>Please click continue when you are ready to begin.</p>,0,,,,NA,NA,NA,NA,NA,NA,,NA,,,,,,,NA,,NA,,,,,,,NA,NA,NA,NA,NA,NA,NA,NA,NA,NA,NA,NA,NA,NA,NA,NA,NA,NA,NA,NA,NA,NA,NA,NA,NA,NA,NA,NA,NA,NA,NA,NA,NA,NA,NA,NA,NA,NA,NA,NA,NA,NA,NA,NA,NA,NA,NA,NA,NA,NA,NA,NA,NA,NA,NA,NA,NA,NA,NA,NA,NA,NA,NA,NA,NA,NA,NA,NA,NA,NA,NA,NA,NA,NA,NA,NA,NA,NA,NA,NA,NA,NA,NA,NA,NA,NA,NA,NA,NA,NA,NA,NA,,,NA
html-button-response,11,45727,0.0-3.0-0.0,mr81dhy9r5lxu8r,0,Windows,Chrome,10331.000000005588,"<p>This round, you will rate whether each face looks <b>fearful</b> or not.</p><p>If the face looks <b>fearful</b>, press the letter <b>P</b>. If the face does <b>NOT</b> look fearful, press the letter <b>Q</b>.</p><p>Please respond as quickly and accurately as possible when you see each face appear.</p><p>Click continue when you are ready to start this round.</p>",0,,,,NA,NA,NA,NA,NA,NA,,NA,,,,,,,NA,,NA,,,,,,,NA,NA,NA,NA,NA,NA,NA,NA,NA,NA,NA,NA,NA,NA,NA,NA,NA,NA,NA,NA,NA,NA,NA,NA,NA,NA,NA,NA,NA,NA,NA,NA,NA,NA,NA,NA,NA,NA,NA,NA,NA,NA,NA,NA,NA,NA,NA,NA,NA,NA,NA,NA,NA,NA,NA,NA,NA,NA,NA,NA,NA,NA,NA,NA,NA,NA,NA,NA,NA,NA,NA,NA,NA,NA,NA,NA,NA,NA,NA,NA,NA,NA,NA,NA,NA,NA,NA,NA,NA,NA,NA,NA,,,NA
survey-multi-choice,12,54540,0.0-3.0-1.0,mr81dhy9r5lxu8r,0,Windows,Chrome,8297.00000002049,,NA,"{""CheckEmotionRating"":""fearful""}",[0],instructionChecks,TRUE,NA,NA,NA,NA,NA,,NA,,,,,,,NA,,NA,,,,,,,NA,NA,NA,NA,NA,NA,NA,NA,NA,NA,NA,NA,NA,NA,NA,NA,NA,NA,NA,NA,NA,NA,NA,NA,NA,NA,NA,NA,NA,NA,NA,NA,NA,NA,NA,NA,NA,NA,NA,NA,NA,NA,NA,NA,NA,NA,NA,NA,NA,NA,NA,NA,NA,NA,NA,NA,NA,NA,NA,NA,NA,NA,NA,NA,NA,NA,NA,NA,NA,NA,NA,NA,NA,NA,NA,NA,NA,NA,NA,NA,NA,NA,NA,NA,NA,NA,NA,NA,NA,NA,NA,NA,,,NA
survey-html-form,13,63260,0.0-3.0-2.0,mr81dhy9r5lxu8r,0,Windows,Chrome,8217.000000178814,,NA,"{""checkKeyYes"":""p"",""checkKeyNo"":""q""}",,instructionChecks,NA,TRUE,TRUE,NA,NA,NA,,NA,,,,,,,NA,,NA,,,,,,,NA,NA,NA,NA,NA,NA,NA,NA,NA,NA,NA,NA,NA,NA,NA,NA,NA,NA,NA,NA,NA,NA,NA,NA,NA,NA,NA,NA,NA,NA,NA,NA,NA,NA,NA,NA,NA,NA,NA,NA,NA,NA,NA,NA,NA,NA,NA,NA,NA,NA,NA,NA,NA,NA,NA,NA,NA,NA,NA,NA,NA,NA,NA,NA,NA,NA,NA,NA,NA,NA,NA,NA,NA,NA,NA,NA,NA,NA,NA,NA,NA,NA,NA,NA,NA,NA,NA,NA,NA,NA,NA,NA,,,NA
html-keyboard-response,14,64769,0.0-4.0-0.0,mr81dhy9r5lxu8r,0,Windows,Chrome,NA,+,NA,,,fixation,NA,NA,NA,NA,NA,NA,,NA,,,,,,,NA,,NA,,,,,,,NA,NA,NA,NA,NA,NA,NA,NA,NA,NA,NA,NA,NA,NA,NA,NA,NA,NA,NA,NA,NA,NA,NA,NA,NA,NA,NA,NA,NA,NA,NA,NA,NA,NA,NA,NA,NA,NA,NA,NA,NA,NA,NA,NA,NA,NA,NA,NA,NA,NA,NA,NA,NA,NA,NA,NA,NA,NA,NA,NA,NA,NA,NA,NA,NA,NA,NA,NA,NA,NA,NA,NA,NA,NA,NA,NA,NA,NA,NA,NA,NA,NA,NA,NA,NA,NA,NA,NA,NA,NA,NA,NA,,,NA
image-keyboard-response,15,69501,0.0-4.0-1.0,mr81dhy9r5lxu8r,0,Windows,Chrome,4716.000000014901,_faces/BF15_H_U.jpg,NA,,,emotionRatingFaceWindow,NA,NA,NA,81,4,0,fearful,0,BF15_H_U,BF15,B,F,H,U,0,,NA,,,,,,,NA,NA,NA,NA,NA,NA,NA,NA,NA,NA,NA,NA,NA,NA,NA,NA,NA,NA,NA,NA,NA,NA,NA,NA,NA,NA,NA,NA,NA,NA,NA,NA,NA,NA,NA,NA,NA,NA,NA,NA,NA,NA,NA,NA,NA,NA,NA,NA,NA,NA,NA,NA,NA,NA,NA,NA,NA,NA,NA,NA,NA,NA,NA,NA,NA,NA,NA,NA,NA,NA,NA,NA,NA,NA,NA,NA,NA,NA,NA,NA,NA,NA,NA,NA,NA,NA,NA,NA,NA,NA,NA,NA,,,NA
html-keyboard-response,16,70505,0.0-4.0-0.1,mr81dhy9r5lxu8r,0,Windows,Chrome,NA,+,NA,,,fixation,NA,NA,NA,NA,NA,NA,,NA,,,,,,,NA,,NA,,,,,,,NA,NA,NA,NA,NA,NA,NA,NA,NA,NA,NA,NA,NA,NA,NA,NA,NA,NA,NA,NA,NA,NA,NA,NA,NA,NA,NA,NA,NA,NA,NA,NA,NA,NA,NA,NA,NA,NA,NA,NA,NA,NA,NA,NA,NA,NA,NA,NA,NA,NA,NA,NA,NA,NA,NA,NA,NA,NA,NA,NA,NA,NA,NA,NA,NA,NA,NA,NA,NA,NA,NA,NA,NA,NA,NA,NA,NA,NA,NA,NA,NA,NA,NA,NA,NA,NA,NA,NA,NA,NA,NA,NA,,,NA
image-keyboard-response,17,72212,0.0-4.0-1.1,mr81dhy9r5lxu8r,0,Windows,Chrome,1699.9999999534339,_faces/AF06_H_U.jpg,NA,,,emotionRatingFaceWindow,NA,NA,NA,81,4,0,fearful,1,AF06_H_U,AF06,A,F,H,U,0,,NA,,,,,,,NA,NA,NA,NA,NA,NA,NA,NA,NA,NA,NA,NA,NA,NA,NA,NA,NA,NA,NA,NA,NA,NA,NA,NA,NA,NA,NA,NA,NA,NA,NA,NA,NA,NA,NA,NA,NA,NA,NA,NA,NA,NA,NA,NA,NA,NA,NA,NA,NA,NA,NA,NA,NA,NA,NA,NA,NA,NA,NA,NA,NA,NA,NA,NA,NA,NA,NA,NA,NA,NA,NA,NA,NA,NA,NA,NA,NA,NA,NA,NA,NA,NA,NA,NA,NA,NA,NA,NA,NA,NA,NA,NA,,,NA
html-keyboard-response,18,73215,0.0-4.0-0.2,mr81dhy9r5lxu8r,0,Windows,Chrome,NA,+,NA,,,fixation,NA,NA,NA,NA,NA,NA,,NA,,,,,,,NA,,NA,,,,,,,NA,NA,NA,NA,NA,NA,NA,NA,NA,NA,NA,NA,NA,NA,NA,NA,NA,NA,NA,NA,NA,NA,NA,NA,NA,NA,NA,NA,NA,NA,NA,NA,NA,NA,NA,NA,NA,NA,NA,NA,NA,NA,NA,NA,NA,NA,NA,NA,NA,NA,NA,NA,NA,NA,NA,NA,NA,NA,NA,NA,NA,NA,NA,NA,NA,NA,NA,NA,NA,NA,NA,NA,NA,NA,NA,NA,NA,NA,NA,NA,NA,NA,NA,NA,NA,NA,NA,NA,NA,NA,NA,NA,,,NA
image-keyboard-response,19,75057,0.0-4.0-1.2,mr81dhy9r5lxu8r,0,Windows,Chrome,1839.000000152737,_faces/WF05_A_U.jpg,NA,,,emotionRatingFaceWindow,NA,NA,NA,80,4,0,fearful,2,WF05_A_U,WF05,W,F,A,U,1,,NA,,,,,,,NA,NA,NA,NA,NA,NA,NA,NA,NA,NA,NA,NA,NA,NA,NA,NA,NA,NA,NA,NA,NA,NA,NA,NA,NA,NA,NA,NA,NA,NA,NA,NA,NA,NA,NA,NA,NA,NA,NA,NA,NA,NA,NA,NA,NA,NA,NA,NA,NA,NA,NA,NA,NA,NA,NA,NA,NA,NA,NA,NA,NA,NA,NA,NA,NA,NA,NA,NA,NA,NA,NA,NA,NA,NA,NA,NA,NA,NA,NA,NA,NA,NA,NA,NA,NA,NA,NA,NA,NA,NA,NA,NA,,,NA
html-keyboard-response,20,76067,0.0-4.0-0.3,mr81dhy9r5lxu8r,0,Windows,Chrome,NA,+,NA,,,fixation,NA,NA,NA,NA,NA,NA,,NA,,,,,,,NA,,NA,,,,,,,NA,NA,NA,NA,NA,NA,NA,NA,NA,NA,NA,NA,NA,NA,NA,NA,NA,NA,NA,NA,NA,NA,NA,NA,NA,NA,NA,NA,NA,NA,NA,NA,NA,NA,NA,NA,NA,NA,NA,NA,NA,NA,NA,NA,NA,NA,NA,NA,NA,NA,NA,NA,NA,NA,NA,NA,NA,NA,NA,NA,NA,NA,NA,NA,NA,NA,NA,NA,NA,NA,NA,NA,NA,NA,NA,NA,NA,NA,NA,NA,NA,NA,NA,NA,NA,NA,NA,NA,NA,NA,NA,NA,,,NA
image-keyboard-response,21,78298,0.0-4.0-1.3,mr81dhy9r5lxu8r,0,Windows,Chrome,2216.000000014901,_faces/WF02_S_L.jpg,NA,,,emotionRatingFaceWindow,NA,NA,NA,80,4,0,fearful,3,WF02_S_L,WF02,W,F,S,L,1,,NA,,,,,,,NA,NA,NA,NA,NA,NA,NA,NA,NA,NA,NA,NA,NA,NA,NA,NA,NA,NA,NA,NA,NA,NA,NA,NA,NA,NA,NA,NA,NA,NA,NA,NA,NA,NA,NA,NA,NA,NA,NA,NA,NA,NA,NA,NA,NA,NA,NA,NA,NA,NA,NA,NA,NA,NA,NA,NA,NA,NA,NA,NA,NA,NA,NA,NA,NA,NA,NA,NA,NA,NA,NA,NA,NA,NA,NA,NA,NA,NA,NA,NA,NA,NA,NA,NA,NA,NA,NA,NA,NA,NA,NA,NA,,,NA
html-keyboard-response,22,79316,0.0-4.0-0.4,mr81dhy9r5lxu8r,0,Windows,Chrome,NA,+,NA,,,fixation,NA,NA,NA,NA,NA,NA,,NA,,,,,,,NA,,NA,,,,,,,NA,NA,NA,NA,NA,NA,NA,NA,NA,NA,NA,NA,NA,NA,NA,NA,NA,NA,NA,NA,NA,NA,NA,NA,NA,NA,NA,NA,NA,NA,NA,NA,NA,NA,NA,NA,NA,NA,NA,NA,NA,NA,NA,NA,NA,NA,NA,NA,NA,NA,NA,NA,NA,NA,NA,NA,NA,NA,NA,NA,NA,NA,NA,NA,NA,NA,NA,NA,NA,NA,NA,NA,NA,NA,NA,NA,NA,NA,NA,NA,NA,NA,NA,NA,NA,NA,NA,NA,NA,NA,NA,NA,,,NA
image-keyboard-response,23,81482,0.0-4.0-1.4,mr81dhy9r5lxu8r,0,Windows,Chrome,2163.0000001750886,_faces/HF05_D_U.jpg,NA,,,emotionRatingFaceWindow,NA,NA,NA,80,4,0,fearful,4,HF05_D_U,HF05,H,F,D,U,1,,NA,,,,,,,NA,NA,NA,NA,NA,NA,NA,NA,NA,NA,NA,NA,NA,NA,NA,NA,NA,NA,NA,NA,NA,NA,NA,NA,NA,NA,NA,NA,NA,NA,NA,NA,NA,NA,NA,NA,NA,NA,NA,NA,NA,NA,NA,NA,NA,NA,NA,NA,NA,NA,NA,NA,NA,NA,NA,NA,NA,NA,NA,NA,NA,NA,NA,NA,NA,NA,NA,NA,NA,NA,NA,NA,NA,NA,NA,NA,NA,NA,NA,NA,NA,NA,NA,NA,NA,NA,NA,NA,NA,NA,NA,NA,,,NA
html-keyboard-response,24,82488,0.0-4.0-0.5,mr81dhy9r5lxu8r,0,Windows,Chrome,NA,+,NA,,,fixation,NA,NA,NA,NA,NA,NA,,NA,,,,,,,NA,,NA,,,,,,,NA,NA,NA,NA,NA,NA,NA,NA,NA,NA,NA,NA,NA,NA,NA,NA,NA,NA,NA,NA,NA,NA,NA,NA,NA,NA,NA,NA,NA,NA,NA,NA,NA,NA,NA,NA,NA,NA,NA,NA,NA,NA,NA,NA,NA,NA,NA,NA,NA,NA,NA,NA,NA,NA,NA,NA,NA,NA,NA,NA,NA,NA,NA,NA,NA,NA,NA,NA,NA,NA,NA,NA,NA,NA,NA,NA,NA,NA,NA,NA,NA,NA,NA,NA,NA,NA,NA,NA,NA,NA,NA,NA,,,NA
image-keyboard-response,25,85949,0.0-4.0-1.5,mr81dhy9r5lxu8r,0,Windows,Chrome,3458.000000100583,_faces/AM11_D_X.jpg,NA,,,emotionRatingFaceWindow,NA,NA,NA,80,4,0,fearful,5,AM11_D_X,AM11,A,M,D,X,1,,NA,,,,,,,NA,NA,NA,NA,NA,NA,NA,NA,NA,NA,NA,NA,NA,NA,NA,NA,NA,NA,NA,NA,NA,NA,NA,NA,NA,NA,NA,NA,NA,NA,NA,NA,NA,NA,NA,NA,NA,NA,NA,NA,NA,NA,NA,NA,NA,NA,NA,NA,NA,NA,NA,NA,NA,NA,NA,NA,NA,NA,NA,NA,NA,NA,NA,NA,NA,NA,NA,NA,NA,NA,NA,NA,NA,NA,NA,NA,NA,NA,NA,NA,NA,NA,NA,NA,NA,NA,NA,NA,NA,NA,NA,NA,,,NA
html-keyboard-response,26,86951,0.0-4.0-0.6,mr81dhy9r5lxu8r,0,Windows,Chrome,NA,+,NA,,,fixation,NA,NA,NA,NA,NA,NA,,NA,,,,,,,NA,,NA,,,,,,,NA,NA,NA,NA,NA,NA,NA,NA,NA,NA,NA,NA,NA,NA,NA,NA,NA,NA,NA,NA,NA,NA,NA,NA,NA,NA,NA,NA,NA,NA,NA,NA,NA,NA,NA,NA,NA,NA,NA,NA,NA,NA,NA,NA,NA,NA,NA,NA,NA,NA,NA,NA,NA,NA,NA,NA,NA,NA,NA,NA,NA,NA,NA,NA,NA,NA,NA,NA,NA,NA,NA,NA,NA,NA,NA,NA,NA,NA,NA,NA,NA,NA,NA,NA,NA,NA,NA,NA,NA,NA,NA,NA,,,NA
image-keyboard-response,27,88449,0.0-4.0-1.6,mr81dhy9r5lxu8r,0,Windows,Chrome,1496.0000000428408,_faces/AF06_H_L.jpg,NA,,,emotionRatingFaceWindow,NA,NA,NA,81,4,0,fearful,6,AF06_H_L,AF06,A,F,H,L,0,,NA,,,,,,,NA,NA,NA,NA,NA,NA,NA,NA,NA,NA,NA,NA,NA,NA,NA,NA,NA,NA,NA,NA,NA,NA,NA,NA,NA,NA,NA,NA,NA,NA,NA,NA,NA,NA,NA,NA,NA,NA,NA,NA,NA,NA,NA,NA,NA,NA,NA,NA,NA,NA,NA,NA,NA,NA,NA,NA,NA,NA,NA,NA,NA,NA,NA,NA,NA,NA,NA,NA,NA,NA,NA,NA,NA,NA,NA,NA,NA,NA,NA,NA,NA,NA,NA,NA,NA,NA,NA,NA,NA,NA,NA,NA,,,NA
html-keyboard-response,28,89451,0.0-4.0-0.7,mr81dhy9r5lxu8r,0,Windows,Chrome,NA,+,NA,,,fixation,NA,NA,NA,NA,NA,NA,,NA,,,,,,,NA,,NA,,,,,,,NA,NA,NA,NA,NA,NA,NA,NA,NA,NA,NA,NA,NA,NA,NA,NA,NA,NA,NA,NA,NA,NA,NA,NA,NA,NA,NA,NA,NA,NA,NA,NA,NA,NA,NA,NA,NA,NA,NA,NA,NA,NA,NA,NA,NA,NA,NA,NA,NA,NA,NA,NA,NA,NA,NA,NA,NA,NA,NA,NA,NA,NA,NA,NA,NA,NA,NA,NA,NA,NA,NA,NA,NA,NA,NA,NA,NA,NA,NA,NA,NA,NA,NA,NA,NA,NA,NA,NA,NA,NA,NA,NA,,,NA
image-keyboard-response,29,91169,0.0-4.0-1.7,mr81dhy9r5lxu8r,0,Windows,Chrome,1716.0000000149012,_faces/HM09_R_U.jpg,NA,,,emotionRatingFaceWindow,NA,NA,NA,80,4,0,fearful,7,HM09_R_U,HM09,H,M,R,U,1,,NA,,,,,,,NA,NA,NA,NA,NA,NA,NA,NA,NA,NA,NA,NA,NA,NA,NA,NA,NA,NA,NA,NA,NA,NA,NA,NA,NA,NA,NA,NA,NA,NA,NA,NA,NA,NA,NA,NA,NA,NA,NA,NA,NA,NA,NA,NA,NA,NA,NA,NA,NA,NA,NA,NA,NA,NA,NA,NA,NA,NA,NA,NA,NA,NA,NA,NA,NA,NA,NA,NA,NA,NA,NA,NA,NA,NA,NA,NA,NA,NA,NA,NA,NA,NA,NA,NA,NA,NA,NA,NA,NA,NA,NA,NA,,,NA
html-keyboard-response,30,92176,0.0-4.0-0.8,mr81dhy9r5lxu8r,0,Windows,Chrome,NA,+,NA,,,fixation,NA,NA,NA,NA,NA,NA,,NA,,,,,,,NA,,NA,,,,,,,NA,NA,NA,NA,NA,NA,NA,NA,NA,NA,NA,NA,NA,NA,NA,NA,NA,NA,NA,NA,NA,NA,NA,NA,NA,NA,NA,NA,NA,NA,NA,NA,NA,NA,NA,NA,NA,NA,NA,NA,NA,NA,NA,NA,NA,NA,NA,NA,NA,NA,NA,NA,NA,NA,NA,NA,NA,NA,NA,NA,NA,NA,NA,NA,NA,NA,NA,NA,NA,NA,NA,NA,NA,NA,NA,NA,NA,NA,NA,NA,NA,NA,NA,NA,NA,NA,NA,NA,NA,NA,NA,NA,,,NA
image-keyboard-response,31,93771,0.0-4.0-1.8,mr81dhy9r5lxu8r,0,Windows,Chrome,1591.0000000149012,_faces/AF06_H_X.jpg,NA,,,emotionRatingFaceWindow,NA,NA,NA,81,4,0,fearful,8,AF06_H_X,AF06,A,F,H,X,0,,NA,,,,,,,NA,NA,NA,NA,NA,NA,NA,NA,NA,NA,NA,NA,NA,NA,NA,NA,NA,NA,NA,NA,NA,NA,NA,NA,NA,NA,NA,NA,NA,NA,NA,NA,NA,NA,NA,NA,NA,NA,NA,NA,NA,NA,NA,NA,NA,NA,NA,NA,NA,NA,NA,NA,NA,NA,NA,NA,NA,NA,NA,NA,NA,NA,NA,NA,NA,NA,NA,NA,NA,NA,NA,NA,NA,NA,NA,NA,NA,NA,NA,NA,NA,NA,NA,NA,NA,NA,NA,NA,NA,NA,NA,NA,,,NA
html-keyboard-response,32,94785,0.0-4.0-0.9,mr81dhy9r5lxu8r,0,Windows,Chrome,NA,+,NA,,,fixation,NA,NA,NA,NA,NA,NA,,NA,,,,,,,NA,,NA,,,,,,,NA,NA,NA,NA,NA,NA,NA,NA,NA,NA,NA,NA,NA,NA,NA,NA,NA,NA,NA,NA,NA,NA,NA,NA,NA,NA,NA,NA,NA,NA,NA,NA,NA,NA,NA,NA,NA,NA,NA,NA,NA,NA,NA,NA,NA,NA,NA,NA,NA,NA,NA,NA,NA,NA,NA,NA,NA,NA,NA,NA,NA,NA,NA,NA,NA,NA,NA,NA,NA,NA,NA,NA,NA,NA,NA,NA,NA,NA,NA,NA,NA,NA,NA,NA,NA,NA,NA,NA,NA,NA,NA,NA,,,NA
image-keyboard-response,33,96480,0.0-4.0-1.9,mr81dhy9r5lxu8r,0,Windows,Chrome,1685.0000000558794,_faces/BM16_R_U.jpg,NA,,,emotionRatingFaceWindow,NA,NA,NA,80,4,0,fearful,9,BM16_R_U,BM16,B,M,R,U,1,,NA,,,,,,,NA,NA,NA,NA,NA,NA,NA,NA,NA,NA,NA,NA,NA,NA,NA,NA,NA,NA,NA,NA,NA,NA,NA,NA,NA,NA,NA,NA,NA,NA,NA,NA,NA,NA,NA,NA,NA,NA,NA,NA,NA,NA,NA,NA,NA,NA,NA,NA,NA,NA,NA,NA,NA,NA,NA,NA,NA,NA,NA,NA,NA,NA,NA,NA,NA,NA,NA,NA,NA,NA,NA,NA,NA,NA,NA,NA,NA,NA,NA,NA,NA,NA,NA,NA,NA,NA,NA,NA,NA,NA,NA,NA,,,NA
html-keyboard-response,34,97488,0.0-4.0-0.10,mr81dhy9r5lxu8r,0,Windows,Chrome,NA,+,NA,,,fixation,NA,NA,NA,NA,NA,NA,,NA,,,,,,,NA,,NA,,,,,,,NA,NA,NA,NA,NA,NA,NA,NA,NA,NA,NA,NA,NA,NA,NA,NA,NA,NA,NA,NA,NA,NA,NA,NA,NA,NA,NA,NA,NA,NA,NA,NA,NA,NA,NA,NA,NA,NA,NA,NA,NA,NA,NA,NA,NA,NA,NA,NA,NA,NA,NA,NA,NA,NA,NA,NA,NA,NA,NA,NA,NA,NA,NA,NA,NA,NA,NA,NA,NA,NA,NA,NA,NA,NA,NA,NA,NA,NA,NA,NA,NA,NA,NA,NA,NA,NA,NA,NA,NA,NA,NA,NA,,,NA
image-keyboard-response,35,98910,0.0-4.0-1.10,mr81dhy9r5lxu8r,0,Windows,Chrome,1403.999999864027,_faces/BF10_F_L.jpg,NA,,,emotionRatingFaceWindow,NA,NA,NA,80,4,0,fearful,10,BF10_F_L,BF10,B,F,F,L,1,,NA,,,,,,,NA,NA,NA,NA,NA,NA,NA,NA,NA,NA,NA,NA,NA,NA,NA,NA,NA,NA,NA,NA,NA,NA,NA,NA,NA,NA,NA,NA,NA,NA,NA,NA,NA,NA,NA,NA,NA,NA,NA,NA,NA,NA,NA,NA,NA,NA,NA,NA,NA,NA,NA,NA,NA,NA,NA,NA,NA,NA,NA,NA,NA,NA,NA,NA,NA,NA,NA,NA,NA,NA,NA,NA,NA,NA,NA,NA,NA,NA,NA,NA,NA,NA,NA,NA,NA,NA,NA,NA,NA,NA,NA,NA,,,NA
html-keyboard-response,36,99926,0.0-4.0-0.11,mr81dhy9r5lxu8r,0,Windows,Chrome,NA,+,NA,,,fixation,NA,NA,NA,NA,NA,NA,,NA,,,,,,,NA,,NA,,,,,,,NA,NA,NA,NA,NA,NA,NA,NA,NA,NA,NA,NA,NA,NA,NA,NA,NA,NA,NA,NA,NA,NA,NA,NA,NA,NA,NA,NA,NA,NA,NA,NA,NA,NA,NA,NA,NA,NA,NA,NA,NA,NA,NA,NA,NA,NA,NA,NA,NA,NA,NA,NA,NA,NA,NA,NA,NA,NA,NA,NA,NA,NA,NA,NA,NA,NA,NA,NA,NA,NA,NA,NA,NA,NA,NA,NA,NA,NA,NA,NA,NA,NA,NA,NA,NA,NA,NA,NA,NA,NA,NA,NA,,,NA
image-keyboard-response,37,100980,0.0-4.0-1.11,mr81dhy9r5lxu8r,0,Windows,Chrome,1046.000000089407,_faces/BM16_R_X.jpg,NA,,,emotionRatingFaceWindow,NA,NA,NA,80,4,0,fearful,11,BM16_R_X,BM16,B,M,R,X,1,,NA,,,,,,,NA,NA,NA,NA,NA,NA,NA,NA,NA,NA,NA,NA,NA,NA,NA,NA,NA,NA,NA,NA,NA,NA,NA,NA,NA,NA,NA,NA,NA,NA,NA,NA,NA,NA,NA,NA,NA,NA,NA,NA,NA,NA,NA,NA,NA,NA,NA,NA,NA,NA,NA,NA,NA,NA,NA,NA,NA,NA,NA,NA,NA,NA,NA,NA,NA,NA,NA,NA,NA,NA,NA,NA,NA,NA,NA,NA,NA,NA,NA,NA,NA,NA,NA,NA,NA,NA,NA,NA,NA,NA,NA,NA,,,NA
html-keyboard-response,38,101988,0.0-4.0-0.12,mr81dhy9r5lxu8r,0,Windows,Chrome,NA,+,NA,,,fixation,NA,NA,NA,NA,NA,NA,,NA,,,,,,,NA,,NA,,,,,,,NA,NA,NA,NA,NA,NA,NA,NA,NA,NA,NA,NA,NA,NA,NA,NA,NA,NA,NA,NA,NA,NA,NA,NA,NA,NA,NA,NA,NA,NA,NA,NA,NA,NA,NA,NA,NA,NA,NA,NA,NA,NA,NA,NA,NA,NA,NA,NA,NA,NA,NA,NA,NA,NA,NA,NA,NA,NA,NA,NA,NA,NA,NA,NA,NA,NA,NA,NA,NA,NA,NA,NA,NA,NA,NA,NA,NA,NA,NA,NA,NA,NA,NA,NA,NA,NA,NA,NA,NA,NA,NA,NA,,,NA
image-keyboard-response,39,103361,0.0-4.0-1.12,mr81dhy9r5lxu8r,0,Windows,Chrome,1357.0000000763685,_faces/HM08_H_X.jpg,NA,,,emotionRatingFaceWindow,NA,NA,NA,81,4,0,fearful,12,HM08_H_X,HM08,H,M,H,X,0,,NA,,,,,,,NA,NA,NA,NA,NA,NA,NA,NA,NA,NA,NA,NA,NA,NA,NA,NA,NA,NA,NA,NA,NA,NA,NA,NA,NA,NA,NA,NA,NA,NA,NA,NA,NA,NA,NA,NA,NA,NA,NA,NA,NA,NA,NA,NA,NA,NA,NA,NA,NA,NA,NA,NA,NA,NA,NA,NA,NA,NA,NA,NA,NA,NA,NA,NA,NA,NA,NA,NA,NA,NA,NA,NA,NA,NA,NA,NA,NA,NA,NA,NA,NA,NA,NA,NA,NA,NA,NA,NA,NA,NA,NA,NA,,,NA
html-keyboard-response,40,104364,0.0-4.0-0.13,mr81dhy9r5lxu8r,0,Windows,Chrome,NA,+,NA,,,fixation,NA,NA,NA,NA,NA,NA,,NA,,,,,,,NA,,NA,,,,,,,NA,NA,NA,NA,NA,NA,NA,NA,NA,NA,NA,NA,NA,NA,NA,NA,NA,NA,NA,NA,NA,NA,NA,NA,NA,NA,NA,NA,NA,NA,NA,NA,NA,NA,NA,NA,NA,NA,NA,NA,NA,NA,NA,NA,NA,NA,NA,NA,NA,NA,NA,NA,NA,NA,NA,NA,NA,NA,NA,NA,NA,NA,NA,NA,NA,NA,NA,NA,NA,NA,NA,NA,NA,NA,NA,NA,NA,NA,NA,NA,NA,NA,NA,NA,NA,NA,NA,NA,NA,NA,NA,NA,,,NA
image-keyboard-response,41,106166,0.0-4.0-1.13,mr81dhy9r5lxu8r,0,Windows,Chrome,1798.9999998826534,_faces/AF09_R_U.jpg,NA,,,emotionRatingFaceWindow,NA,NA,NA,80,4,0,fearful,13,AF09_R_U,AF09,A,F,R,U,1,,NA,,,,,,,NA,NA,NA,NA,NA,NA,NA,NA,NA,NA,NA,NA,NA,NA,NA,NA,NA,NA,NA,NA,NA,NA,NA,NA,NA,NA,NA,NA,NA,NA,NA,NA,NA,NA,NA,NA,NA,NA,NA,NA,NA,NA,NA,NA,NA,NA,NA,NA,NA,NA,NA,NA,NA,NA,NA,NA,NA,NA,NA,NA,NA,NA,NA,NA,NA,NA,NA,NA,NA,NA,NA,NA,NA,NA,NA,NA,NA,NA,NA,NA,NA,NA,NA,NA,NA,NA,NA,NA,NA,NA,NA,NA,,,NA
html-keyboard-response,42,107176,0.0-4.0-0.14,mr81dhy9r5lxu8r,0,Windows,Chrome,NA,+,NA,,,fixation,NA,NA,NA,NA,NA,NA,,NA,,,,,,,NA,,NA,,,,,,,NA,NA,NA,NA,NA,NA,NA,NA,NA,NA,NA,NA,NA,NA,NA,NA,NA,NA,NA,NA,NA,NA,NA,NA,NA,NA,NA,NA,NA,NA,NA,NA,NA,NA,NA,NA,NA,NA,NA,NA,NA,NA,NA,NA,NA,NA,NA,NA,NA,NA,NA,NA,NA,NA,NA,NA,NA,NA,NA,NA,NA,NA,NA,NA,NA,NA,NA,NA,NA,NA,NA,NA,NA,NA,NA,NA,NA,NA,NA,NA,NA,NA,NA,NA,NA,NA,NA,NA,NA,NA,NA,NA,,,NA
image-keyboard-response,43,108180,0.0-4.0-1.14,mr81dhy9r5lxu8r,0,Windows,Chrome,996.0000000428408,_faces/HF09_F_X.jpg,NA,,,emotionRatingFaceWindow,NA,NA,NA,80,4,0,fearful,14,HF09_F_X,HF09,H,F,F,X,1,,NA,,,,,,,NA,NA,NA,NA,NA,NA,NA,NA,NA,NA,NA,NA,NA,NA,NA,NA,NA,NA,NA,NA,NA,NA,NA,NA,NA,NA,NA,NA,NA,NA,NA,NA,NA,NA,NA,NA,NA,NA,NA,NA,NA,NA,NA,NA,NA,NA,NA,NA,NA,NA,NA,NA,NA,NA,NA,NA,NA,NA,NA,NA,NA,NA,NA,NA,NA,NA,NA,NA,NA,NA,NA,NA,NA,NA,NA,NA,NA,NA,NA,NA,NA,NA,NA,NA,NA,NA,NA,NA,NA,NA,NA,NA,,,NA
html-keyboard-response,44,109180,0.0-4.0-0.15,mr81dhy9r5lxu8r,0,Windows,Chrome,NA,+,NA,,,fixation,NA,NA,NA,NA,NA,NA,,NA,,,,,,,NA,,NA,,,,,,,NA,NA,NA,NA,NA,NA,NA,NA,NA,NA,NA,NA,NA,NA,NA,NA,NA,NA,NA,NA,NA,NA,NA,NA,NA,NA,NA,NA,NA,NA,NA,NA,NA,NA,NA,NA,NA,NA,NA,NA,NA,NA,NA,NA,NA,NA,NA,NA,NA,NA,NA,NA,NA,NA,NA,NA,NA,NA,NA,NA,NA,NA,NA,NA,NA,NA,NA,NA,NA,NA,NA,NA,NA,NA,NA,NA,NA,NA,NA,NA,NA,NA,NA,NA,NA,NA,NA,NA,NA,NA,NA,NA,,,NA
image-keyboard-response,45,112394,0.0-4.0-1.15,mr81dhy9r5lxu8r,0,Windows,Chrome,3212.999999988824,_faces/WM09_D_X.jpg,NA,,,emotionRatingFaceWindow,NA,NA,NA,81,4,0,fearful,15,WM09_D_X,WM09,W,M,D,X,0,,NA,,,,,,,NA,NA,NA,NA,NA,NA,NA,NA,NA,NA,NA,NA,NA,NA,NA,NA,NA,NA,NA,NA,NA,NA,NA,NA,NA,NA,NA,NA,NA,NA,NA,NA,NA,NA,NA,NA,NA,NA,NA,NA,NA,NA,NA,NA,NA,NA,NA,NA,NA,NA,NA,NA,NA,NA,NA,NA,NA,NA,NA,NA,NA,NA,NA,NA,NA,NA,NA,NA,NA,NA,NA,NA,NA,NA,NA,NA,NA,NA,NA,NA,NA,NA,NA,NA,NA,NA,NA,NA,NA,NA,NA,NA,,,NA
html-keyboard-response,46,113412,0.0-4.0-0.16,mr81dhy9r5lxu8r,0,Windows,Chrome,NA,+,NA,,,fixation,NA,NA,NA,NA,NA,NA,,NA,,,,,,,NA,,NA,,,,,,,NA,NA,NA,NA,NA,NA,NA,NA,NA,NA,NA,NA,NA,NA,NA,NA,NA,NA,NA,NA,NA,NA,NA,NA,NA,NA,NA,NA,NA,NA,NA,NA,NA,NA,NA,NA,NA,NA,NA,NA,NA,NA,NA,NA,NA,NA,NA,NA,NA,NA,NA,NA,NA,NA,NA,NA,NA,NA,NA,NA,NA,NA,NA,NA,NA,NA,NA,NA,NA,NA,NA,NA,NA,NA,NA,NA,NA,NA,NA,NA,NA,NA,NA,NA,NA,NA,NA,NA,NA,NA,NA,NA,,,NA
image-keyboard-response,47,115419,0.0-4.0-1.16,mr81dhy9r5lxu8r,0,Windows,Chrome,1993.999999947846,_faces/HM09_R_L.jpg,NA,,,emotionRatingFaceWindow,NA,NA,NA,80,4,0,fearful,16,HM09_R_L,HM09,H,M,R,L,1,,NA,,,,,,,NA,NA,NA,NA,NA,NA,NA,NA,NA,NA,NA,NA,NA,NA,NA,NA,NA,NA,NA,NA,NA,NA,NA,NA,NA,NA,NA,NA,NA,NA,NA,NA,NA,NA,NA,NA,NA,NA,NA,NA,NA,NA,NA,NA,NA,NA,NA,NA,NA,NA,NA,NA,NA,NA,NA,NA,NA,NA,NA,NA,NA,NA,NA,NA,NA,NA,NA,NA,NA,NA,NA,NA,NA,NA,NA,NA,NA,NA,NA,NA,NA,NA,NA,NA,NA,NA,NA,NA,NA,NA,NA,NA,,,NA
html-keyboard-response,48,116420,0.0-4.0-0.17,mr81dhy9r5lxu8r,0,Windows,Chrome,NA,+,NA,,,fixation,NA,NA,NA,NA,NA,NA,,NA,,,,,,,NA,,NA,,,,,,,NA,NA,NA,NA,NA,NA,NA,NA,NA,NA,NA,NA,NA,NA,NA,NA,NA,NA,NA,NA,NA,NA,NA,NA,NA,NA,NA,NA,NA,NA,NA,NA,NA,NA,NA,NA,NA,NA,NA,NA,NA,NA,NA,NA,NA,NA,NA,NA,NA,NA,NA,NA,NA,NA,NA,NA,NA,NA,NA,NA,NA,NA,NA,NA,NA,NA,NA,NA,NA,NA,NA,NA,NA,NA,NA,NA,NA,NA,NA,NA,NA,NA,NA,NA,NA,NA,NA,NA,NA,NA,NA,NA,,,NA
image-keyboard-response,49,117974,0.0-4.0-1.17,mr81dhy9r5lxu8r,0,Windows,Chrome,1548.9999998826534,_faces/HM08_H_L.jpg,NA,,,emotionRatingFaceWindow,NA,NA,NA,81,4,0,fearful,17,HM08_H_L,HM08,H,M,H,L,0,,NA,,,,,,,NA,NA,NA,NA,NA,NA,NA,NA,NA,NA,NA,NA,NA,NA,NA,NA,NA,NA,NA,NA,NA,NA,NA,NA,NA,NA,NA,NA,NA,NA,NA,NA,NA,NA,NA,NA,NA,NA,NA,NA,NA,NA,NA,NA,NA,NA,NA,NA,NA,NA,NA,NA,NA,NA,NA,NA,NA,NA,NA,NA,NA,NA,NA,NA,NA,NA,NA,NA,NA,NA,NA,NA,NA,NA,NA,NA,NA,NA,NA,NA,NA,NA,NA,NA,NA,NA,NA,NA,NA,NA,NA,NA,,,NA
html-keyboard-response,50,118977,0.0-4.0-0.18,mr81dhy9r5lxu8r,0,Windows,Chrome,NA,+,NA,,,fixation,NA,NA,NA,NA,NA,NA,,NA,,,,,,,NA,,NA,,,,,,,NA,NA,NA,NA,NA,NA,NA,NA,NA,NA,NA,NA,NA,NA,NA,NA,NA,NA,NA,NA,NA,NA,NA,NA,NA,NA,NA,NA,NA,NA,NA,NA,NA,NA,NA,NA,NA,NA,NA,NA,NA,NA,NA,NA,NA,NA,NA,NA,NA,NA,NA,NA,NA,NA,NA,NA,NA,NA,NA,NA,NA,NA,NA,NA,NA,NA,NA,NA,NA,NA,NA,NA,NA,NA,NA,NA,NA,NA,NA,NA,NA,NA,NA,NA,NA,NA,NA,NA,NA,NA,NA,NA,,,NA
image-keyboard-response,51,120774,0.0-4.0-1.18,mr81dhy9r5lxu8r,0,Windows,Chrome,1788.9999998733401,_faces/AM11_D_U.jpg,NA,,,emotionRatingFaceWindow,NA,NA,NA,81,4,0,fearful,18,AM11_D_U,AM11,A,M,D,U,0,,NA,,,,,,,NA,NA,NA,NA,NA,NA,NA,NA,NA,NA,NA,NA,NA,NA,NA,NA,NA,NA,NA,NA,NA,NA,NA,NA,NA,NA,NA,NA,NA,NA,NA,NA,NA,NA,NA,NA,NA,NA,NA,NA,NA,NA,NA,NA,NA,NA,NA,NA,NA,NA,NA,NA,NA,NA,NA,NA,NA,NA,NA,NA,NA,NA,NA,NA,NA,NA,NA,NA,NA,NA,NA,NA,NA,NA,NA,NA,NA,NA,NA,NA,NA,NA,NA,NA,NA,NA,NA,NA,NA,NA,NA,NA,,,NA
html-keyboard-response,52,121775,0.0-4.0-0.19,mr81dhy9r5lxu8r,0,Windows,Chrome,NA,+,NA,,,fixation,NA,NA,NA,NA,NA,NA,,NA,,,,,,,NA,,NA,,,,,,,NA,NA,NA,NA,NA,NA,NA,NA,NA,NA,NA,NA,NA,NA,NA,NA,NA,NA,NA,NA,NA,NA,NA,NA,NA,NA,NA,NA,NA,NA,NA,NA,NA,NA,NA,NA,NA,NA,NA,NA,NA,NA,NA,NA,NA,NA,NA,NA,NA,NA,NA,NA,NA,NA,NA,NA,NA,NA,NA,NA,NA,NA,NA,NA,NA,NA,NA,NA,NA,NA,NA,NA,NA,NA,NA,NA,NA,NA,NA,NA,NA,NA,NA,NA,NA,NA,NA,NA,NA,NA,NA,NA,,,NA
image-keyboard-response,53,123599,0.0-4.0-1.19,mr81dhy9r5lxu8r,0,Windows,Chrome,1820.9999999962747,_faces/AM04_S_U.jpg,NA,,,emotionRatingFaceWindow,NA,NA,NA,81,4,0,fearful,19,AM04_S_U,AM04,A,M,S,U,0,,NA,,,,,,,NA,NA,NA,NA,NA,NA,NA,NA,NA,NA,NA,NA,NA,NA,NA,NA,NA,NA,NA,NA,NA,NA,NA,NA,NA,NA,NA,NA,NA,NA,NA,NA,NA,NA,NA,NA,NA,NA,NA,NA,NA,NA,NA,NA,NA,NA,NA,NA,NA,NA,NA,NA,NA,NA,NA,NA,NA,NA,NA,NA,NA,NA,NA,NA,NA,NA,NA,NA,NA,NA,NA,NA,NA,NA,NA,NA,NA,NA,NA,NA,NA,NA,NA,NA,NA,NA,NA,NA,NA,NA,NA,NA,,,NA
html-keyboard-response,54,124601,0.0-4.0-0.20,mr81dhy9r5lxu8r,0,Windows,Chrome,NA,+,NA,,,fixation,NA,NA,NA,NA,NA,NA,,NA,,,,,,,NA,,NA,,,,,,,NA,NA,NA,NA,NA,NA,NA,NA,NA,NA,NA,NA,NA,NA,NA,NA,NA,NA,NA,NA,NA,NA,NA,NA,NA,NA,NA,NA,NA,NA,NA,NA,NA,NA,NA,NA,NA,NA,NA,NA,NA,NA,NA,NA,NA,NA,NA,NA,NA,NA,NA,NA,NA,NA,NA,NA,NA,NA,NA,NA,NA,NA,NA,NA,NA,NA,NA,NA,NA,NA,NA,NA,NA,NA,NA,NA,NA,NA,NA,NA,NA,NA,NA,NA,NA,NA,NA,NA,NA,NA,NA,NA,,,NA
image-keyboard-response,55,126928,0.0-4.0-1.20,mr81dhy9r5lxu8r,0,Windows,Chrome,2324.0000000223517,_faces/WM13_F_U.jpg,NA,,,emotionRatingFaceWindow,NA,NA,NA,80,4,0,fearful,20,WM13_F_U,WM13,W,M,F,U,1,,NA,,,,,,,NA,NA,NA,NA,NA,NA,NA,NA,NA,NA,NA,NA,NA,NA,NA,NA,NA,NA,NA,NA,NA,NA,NA,NA,NA,NA,NA,NA,NA,NA,NA,NA,NA,NA,NA,NA,NA,NA,NA,NA,NA,NA,NA,NA,NA,NA,NA,NA,NA,NA,NA,NA,NA,NA,NA,NA,NA,NA,NA,NA,NA,NA,NA,NA,NA,NA,NA,NA,NA,NA,NA,NA,NA,NA,NA,NA,NA,NA,NA,NA,NA,NA,NA,NA,NA,NA,NA,NA,NA,NA,NA,NA,,,NA
html-keyboard-response,56,127929,0.0-4.0-0.21,mr81dhy9r5lxu8r,0,Windows,Chrome,NA,+,NA,,,fixation,NA,NA,NA,NA,NA,NA,,NA,,,,,,,NA,,NA,,,,,,,NA,NA,NA,NA,NA,NA,NA,NA,NA,NA,NA,NA,NA,NA,NA,NA,NA,NA,NA,NA,NA,NA,NA,NA,NA,NA,NA,NA,NA,NA,NA,NA,NA,NA,NA,NA,NA,NA,NA,NA,NA,NA,NA,NA,NA,NA,NA,NA,NA,NA,NA,NA,NA,NA,NA,NA,NA,NA,NA,NA,NA,NA,NA,NA,NA,NA,NA,NA,NA,NA,NA,NA,NA,NA,NA,NA,NA,NA,NA,NA,NA,NA,NA,NA,NA,NA,NA,NA,NA,NA,NA,NA,,,NA
image-keyboard-response,57,129904,0.0-4.0-1.21,mr81dhy9r5lxu8r,0,Windows,Chrome,1972.9999999981374,_faces/BF15_H_X.jpg,NA,,,emotionRatingFaceWindow,NA,NA,NA,81,4,0,fearful,21,BF15_H_X,BF15,B,F,H,X,0,,NA,,,,,,,NA,NA,NA,NA,NA,NA,NA,NA,NA,NA,NA,NA,NA,NA,NA,NA,NA,NA,NA,NA,NA,NA,NA,NA,NA,NA,NA,NA,NA,NA,NA,NA,NA,NA,NA,NA,NA,NA,NA,NA,NA,NA,NA,NA,NA,NA,NA,NA,NA,NA,NA,NA,NA,NA,NA,NA,NA,NA,NA,NA,NA,NA,NA,NA,NA,NA,NA,NA,NA,NA,NA,NA,NA,NA,NA,NA,NA,NA,NA,NA,NA,NA,NA,NA,NA,NA,NA,NA,NA,NA,NA,NA,,,NA
html-keyboard-response,58,130910,0.0-4.0-0.22,mr81dhy9r5lxu8r,0,Windows,Chrome,NA,+,NA,,,fixation,NA,NA,NA,NA,NA,NA,,NA,,,,,,,NA,,NA,,,,,,,NA,NA,NA,NA,NA,NA,NA,NA,NA,NA,NA,NA,NA,NA,NA,NA,NA,NA,NA,NA,NA,NA,NA,NA,NA,NA,NA,NA,NA,NA,NA,NA,NA,NA,NA,NA,NA,NA,NA,NA,NA,NA,NA,NA,NA,NA,NA,NA,NA,NA,NA,NA,NA,NA,NA,NA,NA,NA,NA,NA,NA,NA,NA,NA,NA,NA,NA,NA,NA,NA,NA,NA,NA,NA,NA,NA,NA,NA,NA,NA,NA,NA,NA,NA,NA,NA,NA,NA,NA,NA,NA,NA,,,NA
image-keyboard-response,59,133389,0.0-4.0-1.22,mr81dhy9r5lxu8r,0,Windows,Chrome,2465.000000083819,_faces/HF05_D_X.jpg,NA,,,emotionRatingFaceWindow,NA,NA,NA,80,4,0,fearful,22,HF05_D_X,HF05,H,F,D,X,1,,NA,,,,,,,NA,NA,NA,NA,NA,NA,NA,NA,NA,NA,NA,NA,NA,NA,NA,NA,NA,NA,NA,NA,NA,NA,NA,NA,NA,NA,NA,NA,NA,NA,NA,NA,NA,NA,NA,NA,NA,NA,NA,NA,NA,NA,NA,NA,NA,NA,NA,NA,NA,NA,NA,NA,NA,NA,NA,NA,NA,NA,NA,NA,NA,NA,NA,NA,NA,NA,NA,NA,NA,NA,NA,NA,NA,NA,NA,NA,NA,NA,NA,NA,NA,NA,NA,NA,NA,NA,NA,NA,NA,NA,NA,NA,,,NA
html-keyboard-response,60,134394,0.0-4.0-0.23,mr81dhy9r5lxu8r,0,Windows,Chrome,NA,+,NA,,,fixation,NA,NA,NA,NA,NA,NA,,NA,,,,,,,NA,,NA,,,,,,,NA,NA,NA,NA,NA,NA,NA,NA,NA,NA,NA,NA,NA,NA,NA,NA,NA,NA,NA,NA,NA,NA,NA,NA,NA,NA,NA,NA,NA,NA,NA,NA,NA,NA,NA,NA,NA,NA,NA,NA,NA,NA,NA,NA,NA,NA,NA,NA,NA,NA,NA,NA,NA,NA,NA,NA,NA,NA,NA,NA,NA,NA,NA,NA,NA,NA,NA,NA,NA,NA,NA,NA,NA,NA,NA,NA,NA,NA,NA,NA,NA,NA,NA,NA,NA,NA,NA,NA,NA,NA,NA,NA,,,NA
image-keyboard-response,61,136579,0.0-4.0-1.23,mr81dhy9r5lxu8r,0,Windows,Chrome,2168.999999994412,_faces/HF04_A_X.jpg,NA,,,emotionRatingFaceWindow,NA,NA,NA,81,4,0,fearful,23,HF04_A_X,HF04,H,F,A,X,0,,NA,,,,,,,NA,NA,NA,NA,NA,NA,NA,NA,NA,NA,NA,NA,NA,NA,NA,NA,NA,NA,NA,NA,NA,NA,NA,NA,NA,NA,NA,NA,NA,NA,NA,NA,NA,NA,NA,NA,NA,NA,NA,NA,NA,NA,NA,NA,NA,NA,NA,NA,NA,NA,NA,NA,NA,NA,NA,NA,NA,NA,NA,NA,NA,NA,NA,NA,NA,NA,NA,NA,NA,NA,NA,NA,NA,NA,NA,NA,NA,NA,NA,NA,NA,NA,NA,NA,NA,NA,NA,NA,NA,NA,NA,NA,,,NA
html-keyboard-response,62,137583,0.0-4.0-0.24,mr81dhy9r5lxu8r,0,Windows,Chrome,NA,+,NA,,,fixation,NA,NA,NA,NA,NA,NA,,NA,,,,,,,NA,,NA,,,,,,,NA,NA,NA,NA,NA,NA,NA,NA,NA,NA,NA,NA,NA,NA,NA,NA,NA,NA,NA,NA,NA,NA,NA,NA,NA,NA,NA,NA,NA,NA,NA,NA,NA,NA,NA,NA,NA,NA,NA,NA,NA,NA,NA,NA,NA,NA,NA,NA,NA,NA,NA,NA,NA,NA,NA,NA,NA,NA,NA,NA,NA,NA,NA,NA,NA,NA,NA,NA,NA,NA,NA,NA,NA,NA,NA,NA,NA,NA,NA,NA,NA,NA,NA,NA,NA,NA,NA,NA,NA,NA,NA,NA,,,NA
image-keyboard-response,63,139410,0.0-4.0-1.24,mr81dhy9r5lxu8r,0,Windows,Chrome,1823.999999789521,_faces/AM07_A_U.jpg,NA,,,emotionRatingFaceWindow,NA,NA,NA,81,4,0,fearful,24,AM07_A_U,AM07,A,M,A,U,0,,NA,,,,,,,NA,NA,NA,NA,NA,NA,NA,NA,NA,NA,NA,NA,NA,NA,NA,NA,NA,NA,NA,NA,NA,NA,NA,NA,NA,NA,NA,NA,NA,NA,NA,NA,NA,NA,NA,NA,NA,NA,NA,NA,NA,NA,NA,NA,NA,NA,NA,NA,NA,NA,NA,NA,NA,NA,NA,NA,NA,NA,NA,NA,NA,NA,NA,NA,NA,NA,NA,NA,NA,NA,NA,NA,NA,NA,NA,NA,NA,NA,NA,NA,NA,NA,NA,NA,NA,NA,NA,NA,NA,NA,NA,NA,,,NA
html-keyboard-response,64,140424,0.0-4.0-0.25,mr81dhy9r5lxu8r,0,Windows,Chrome,NA,+,NA,,,fixation,NA,NA,NA,NA,NA,NA,,NA,,,,,,,NA,,NA,,,,,,,NA,NA,NA,NA,NA,NA,NA,NA,NA,NA,NA,NA,NA,NA,NA,NA,NA,NA,NA,NA,NA,NA,NA,NA,NA,NA,NA,NA,NA,NA,NA,NA,NA,NA,NA,NA,NA,NA,NA,NA,NA,NA,NA,NA,NA,NA,NA,NA,NA,NA,NA,NA,NA,NA,NA,NA,NA,NA,NA,NA,NA,NA,NA,NA,NA,NA,NA,NA,NA,NA,NA,NA,NA,NA,NA,NA,NA,NA,NA,NA,NA,NA,NA,NA,NA,NA,NA,NA,NA,NA,NA,NA,,,NA
image-keyboard-response,65,142699,0.0-4.0-1.25,mr81dhy9r5lxu8r,0,Windows,Chrome,2264.9999998975545,_faces/WM09_D_L.jpg,NA,,,emotionRatingFaceWindow,NA,NA,NA,80,4,0,fearful,25,WM09_D_L,WM09,W,M,D,L,1,,NA,,,,,,,NA,NA,NA,NA,NA,NA,NA,NA,NA,NA,NA,NA,NA,NA,NA,NA,NA,NA,NA,NA,NA,NA,NA,NA,NA,NA,NA,NA,NA,NA,NA,NA,NA,NA,NA,NA,NA,NA,NA,NA,NA,NA,NA,NA,NA,NA,NA,NA,NA,NA,NA,NA,NA,NA,NA,NA,NA,NA,NA,NA,NA,NA,NA,NA,NA,NA,NA,NA,NA,NA,NA,NA,NA,NA,NA,NA,NA,NA,NA,NA,NA,NA,NA,NA,NA,NA,NA,NA,NA,NA,NA,NA,,,NA
html-keyboard-response,66,143708,0.0-4.0-0.26,mr81dhy9r5lxu8r,0,Windows,Chrome,NA,+,NA,,,fixation,NA,NA,NA,NA,NA,NA,,NA,,,,,,,NA,,NA,,,,,,,NA,NA,NA,NA,NA,NA,NA,NA,NA,NA,NA,NA,NA,NA,NA,NA,NA,NA,NA,NA,NA,NA,NA,NA,NA,NA,NA,NA,NA,NA,NA,NA,NA,NA,NA,NA,NA,NA,NA,NA,NA,NA,NA,NA,NA,NA,NA,NA,NA,NA,NA,NA,NA,NA,NA,NA,NA,NA,NA,NA,NA,NA,NA,NA,NA,NA,NA,NA,NA,NA,NA,NA,NA,NA,NA,NA,NA,NA,NA,NA,NA,NA,NA,NA,NA,NA,NA,NA,NA,NA,NA,NA,,,NA
image-keyboard-response,67,145489,0.0-4.0-1.26,mr81dhy9r5lxu8r,0,Windows,Chrome,1775.9999998379499,_faces/WF05_A_L.jpg,NA,,,emotionRatingFaceWindow,NA,NA,NA,81,4,0,fearful,26,WF05_A_L,WF05,W,F,A,L,0,,NA,,,,,,,NA,NA,NA,NA,NA,NA,NA,NA,NA,NA,NA,NA,NA,NA,NA,NA,NA,NA,NA,NA,NA,NA,NA,NA,NA,NA,NA,NA,NA,NA,NA,NA,NA,NA,NA,NA,NA,NA,NA,NA,NA,NA,NA,NA,NA,NA,NA,NA,NA,NA,NA,NA,NA,NA,NA,NA,NA,NA,NA,NA,NA,NA,NA,NA,NA,NA,NA,NA,NA,NA,NA,NA,NA,NA,NA,NA,NA,NA,NA,NA,NA,NA,NA,NA,NA,NA,NA,NA,NA,NA,NA,NA,,,NA
html-keyboard-response,68,146491,0.0-4.0-0.27,mr81dhy9r5lxu8r,0,Windows,Chrome,NA,+,NA,,,fixation,NA,NA,NA,NA,NA,NA,,NA,,,,,,,NA,,NA,,,,,,,NA,NA,NA,NA,NA,NA,NA,NA,NA,NA,NA,NA,NA,NA,NA,NA,NA,NA,NA,NA,NA,NA,NA,NA,NA,NA,NA,NA,NA,NA,NA,NA,NA,NA,NA,NA,NA,NA,NA,NA,NA,NA,NA,NA,NA,NA,NA,NA,NA,NA,NA,NA,NA,NA,NA,NA,NA,NA,NA,NA,NA,NA,NA,NA,NA,NA,NA,NA,NA,NA,NA,NA,NA,NA,NA,NA,NA,NA,NA,NA,NA,NA,NA,NA,NA,NA,NA,NA,NA,NA,NA,NA,,,NA
image-keyboard-response,69,147800,0.0-4.0-1.27,mr81dhy9r5lxu8r,0,Windows,Chrome,1290.000000037253,_faces/WF02_S_U.jpg,NA,,,emotionRatingFaceWindow,NA,NA,NA,81,4,0,fearful,27,WF02_S_U,WF02,W,F,S,U,0,,NA,,,,,,,NA,NA,NA,NA,NA,NA,NA,NA,NA,NA,NA,NA,NA,NA,NA,NA,NA,NA,NA,NA,NA,NA,NA,NA,NA,NA,NA,NA,NA,NA,NA,NA,NA,NA,NA,NA,NA,NA,NA,NA,NA,NA,NA,NA,NA,NA,NA,NA,NA,NA,NA,NA,NA,NA,NA,NA,NA,NA,NA,NA,NA,NA,NA,NA,NA,NA,NA,NA,NA,NA,NA,NA,NA,NA,NA,NA,NA,NA,NA,NA,NA,NA,NA,NA,NA,NA,NA,NA,NA,NA,NA,NA,,,NA
html-keyboard-response,70,148815,0.0-4.0-0.28,mr81dhy9r5lxu8r,0,Windows,Chrome,NA,+,NA,,,fixation,NA,NA,NA,NA,NA,NA,,NA,,,,,,,NA,,NA,,,,,,,NA,NA,NA,NA,NA,NA,NA,NA,NA,NA,NA,NA,NA,NA,NA,NA,NA,NA,NA,NA,NA,NA,NA,NA,NA,NA,NA,NA,NA,NA,NA,NA,NA,NA,NA,NA,NA,NA,NA,NA,NA,NA,NA,NA,NA,NA,NA,NA,NA,NA,NA,NA,NA,NA,NA,NA,NA,NA,NA,NA,NA,NA,NA,NA,NA,NA,NA,NA,NA,NA,NA,NA,NA,NA,NA,NA,NA,NA,NA,NA,NA,NA,NA,NA,NA,NA,NA,NA,NA,NA,NA,NA,,,NA
image-keyboard-response,71,150290,0.0-4.0-1.28,mr81dhy9r5lxu8r,0,Windows,Chrome,1465.000000083819,_faces/AM11_D_L.jpg,NA,,,emotionRatingFaceWindow,NA,NA,NA,81,4,0,fearful,28,AM11_D_L,AM11,A,M,D,L,0,,NA,,,,,,,NA,NA,NA,NA,NA,NA,NA,NA,NA,NA,NA,NA,NA,NA,NA,NA,NA,NA,NA,NA,NA,NA,NA,NA,NA,NA,NA,NA,NA,NA,NA,NA,NA,NA,NA,NA,NA,NA,NA,NA,NA,NA,NA,NA,NA,NA,NA,NA,NA,NA,NA,NA,NA,NA,NA,NA,NA,NA,NA,NA,NA,NA,NA,NA,NA,NA,NA,NA,NA,NA,NA,NA,NA,NA,NA,NA,NA,NA,NA,NA,NA,NA,NA,NA,NA,NA,NA,NA,NA,NA,NA,NA,,,NA
html-keyboard-response,72,151301,0.0-4.0-0.29,mr81dhy9r5lxu8r,0,Windows,Chrome,NA,+,NA,,,fixation,NA,NA,NA,NA,NA,NA,,NA,,,,,,,NA,,NA,,,,,,,NA,NA,NA,NA,NA,NA,NA,NA,NA,NA,NA,NA,NA,NA,NA,NA,NA,NA,NA,NA,NA,NA,NA,NA,NA,NA,NA,NA,NA,NA,NA,NA,NA,NA,NA,NA,NA,NA,NA,NA,NA,NA,NA,NA,NA,NA,NA,NA,NA,NA,NA,NA,NA,NA,NA,NA,NA,NA,NA,NA,NA,NA,NA,NA,NA,NA,NA,NA,NA,NA,NA,NA,NA,NA,NA,NA,NA,NA,NA,NA,NA,NA,NA,NA,NA,NA,NA,NA,NA,NA,NA,NA,,,NA
image-keyboard-response,73,152662,0.0-4.0-1.29,mr81dhy9r5lxu8r,0,Windows,Chrome,1358.0000000074506,_faces/WF05_A_X.jpg,NA,,,emotionRatingFaceWindow,NA,NA,NA,81,4,0,fearful,29,WF05_A_X,WF05,W,F,A,X,0,,NA,,,,,,,NA,NA,NA,NA,NA,NA,NA,NA,NA,NA,NA,NA,NA,NA,NA,NA,NA,NA,NA,NA,NA,NA,NA,NA,NA,NA,NA,NA,NA,NA,NA,NA,NA,NA,NA,NA,NA,NA,NA,NA,NA,NA,NA,NA,NA,NA,NA,NA,NA,NA,NA,NA,NA,NA,NA,NA,NA,NA,NA,NA,NA,NA,NA,NA,NA,NA,NA,NA,NA,NA,NA,NA,NA,NA,NA,NA,NA,NA,NA,NA,NA,NA,NA,NA,NA,NA,NA,NA,NA,NA,NA,NA,,,NA
html-keyboard-response,74,153676,0.0-4.0-0.30,mr81dhy9r5lxu8r,0,Windows,Chrome,NA,+,NA,,,fixation,NA,NA,NA,NA,NA,NA,,NA,,,,,,,NA,,NA,,,,,,,NA,NA,NA,NA,NA,NA,NA,NA,NA,NA,NA,NA,NA,NA,NA,NA,NA,NA,NA,NA,NA,NA,NA,NA,NA,NA,NA,NA,NA,NA,NA,NA,NA,NA,NA,NA,NA,NA,NA,NA,NA,NA,NA,NA,NA,NA,NA,NA,NA,NA,NA,NA,NA,NA,NA,NA,NA,NA,NA,NA,NA,NA,NA,NA,NA,NA,NA,NA,NA,NA,NA,NA,NA,NA,NA,NA,NA,NA,NA,NA,NA,NA,NA,NA,NA,NA,NA,NA,NA,NA,NA,NA,,,NA
image-keyboard-response,75,155199,0.0-4.0-1.30,mr81dhy9r5lxu8r,0,Windows,Chrome,1511.9999998714775,_faces/BM17_S_L.jpg,NA,,,emotionRatingFaceWindow,NA,NA,NA,81,4,0,fearful,30,BM17_S_L,BM17,B,M,S,L,0,,NA,,,,,,,NA,NA,NA,NA,NA,NA,NA,NA,NA,NA,NA,NA,NA,NA,NA,NA,NA,NA,NA,NA,NA,NA,NA,NA,NA,NA,NA,NA,NA,NA,NA,NA,NA,NA,NA,NA,NA,NA,NA,NA,NA,NA,NA,NA,NA,NA,NA,NA,NA,NA,NA,NA,NA,NA,NA,NA,NA,NA,NA,NA,NA,NA,NA,NA,NA,NA,NA,NA,NA,NA,NA,NA,NA,NA,NA,NA,NA,NA,NA,NA,NA,NA,NA,NA,NA,NA,NA,NA,NA,NA,NA,NA,,,NA
html-keyboard-response,76,156201,0.0-4.0-0.31,mr81dhy9r5lxu8r,0,Windows,Chrome,NA,+,NA,,,fixation,NA,NA,NA,NA,NA,NA,,NA,,,,,,,NA,,NA,,,,,,,NA,NA,NA,NA,NA,NA,NA,NA,NA,NA,NA,NA,NA,NA,NA,NA,NA,NA,NA,NA,NA,NA,NA,NA,NA,NA,NA,NA,NA,NA,NA,NA,NA,NA,NA,NA,NA,NA,NA,NA,NA,NA,NA,NA,NA,NA,NA,NA,NA,NA,NA,NA,NA,NA,NA,NA,NA,NA,NA,NA,NA,NA,NA,NA,NA,NA,NA,NA,NA,NA,NA,NA,NA,NA,NA,NA,NA,NA,NA,NA,NA,NA,NA,NA,NA,NA,NA,NA,NA,NA,NA,NA,,,NA
image-keyboard-response,77,157679,0.0-4.0-1.31,mr81dhy9r5lxu8r,0,Windows,Chrome,1471.000000135973,_faces/HF09_F_L.jpg,NA,,,emotionRatingFaceWindow,NA,NA,NA,81,4,0,fearful,31,HF09_F_L,HF09,H,F,F,L,0,,NA,,,,,,,NA,NA,NA,NA,NA,NA,NA,NA,NA,NA,NA,NA,NA,NA,NA,NA,NA,NA,NA,NA,NA,NA,NA,NA,NA,NA,NA,NA,NA,NA,NA,NA,NA,NA,NA,NA,NA,NA,NA,NA,NA,NA,NA,NA,NA,NA,NA,NA,NA,NA,NA,NA,NA,NA,NA,NA,NA,NA,NA,NA,NA,NA,NA,NA,NA,NA,NA,NA,NA,NA,NA,NA,NA,NA,NA,NA,NA,NA,NA,NA,NA,NA,NA,NA,NA,NA,NA,NA,NA,NA,NA,NA,,,NA
html-keyboard-response,78,158691,0.0-4.0-0.32,mr81dhy9r5lxu8r,0,Windows,Chrome,NA,+,NA,,,fixation,NA,NA,NA,NA,NA,NA,,NA,,,,,,,NA,,NA,,,,,,,NA,NA,NA,NA,NA,NA,NA,NA,NA,NA,NA,NA,NA,NA,NA,NA,NA,NA,NA,NA,NA,NA,NA,NA,NA,NA,NA,NA,NA,NA,NA,NA,NA,NA,NA,NA,NA,NA,NA,NA,NA,NA,NA,NA,NA,NA,NA,NA,NA,NA,NA,NA,NA,NA,NA,NA,NA,NA,NA,NA,NA,NA,NA,NA,NA,NA,NA,NA,NA,NA,NA,NA,NA,NA,NA,NA,NA,NA,NA,NA,NA,NA,NA,NA,NA,NA,NA,NA,NA,NA,NA,NA,,,NA
image-keyboard-response,79,160019,0.0-4.0-1.32,mr81dhy9r5lxu8r,0,Windows,Chrome,1325.0000001862645,_faces/WM09_D_U.jpg,NA,,,emotionRatingFaceWindow,NA,NA,NA,81,4,0,fearful,32,WM09_D_U,WM09,W,M,D,U,0,,NA,,,,,,,NA,NA,NA,NA,NA,NA,NA,NA,NA,NA,NA,NA,NA,NA,NA,NA,NA,NA,NA,NA,NA,NA,NA,NA,NA,NA,NA,NA,NA,NA,NA,NA,NA,NA,NA,NA,NA,NA,NA,NA,NA,NA,NA,NA,NA,NA,NA,NA,NA,NA,NA,NA,NA,NA,NA,NA,NA,NA,NA,NA,NA,NA,NA,NA,NA,NA,NA,NA,NA,NA,NA,NA,NA,NA,NA,NA,NA,NA,NA,NA,NA,NA,NA,NA,NA,NA,NA,NA,NA,NA,NA,NA,,,NA
html-keyboard-response,80,161034,0.0-4.0-0.33,mr81dhy9r5lxu8r,0,Windows,Chrome,NA,+,NA,,,fixation,NA,NA,NA,NA,NA,NA,,NA,,,,,,,NA,,NA,,,,,,,NA,NA,NA,NA,NA,NA,NA,NA,NA,NA,NA,NA,NA,NA,NA,NA,NA,NA,NA,NA,NA,NA,NA,NA,NA,NA,NA,NA,NA,NA,NA,NA,NA,NA,NA,NA,NA,NA,NA,NA,NA,NA,NA,NA,NA,NA,NA,NA,NA,NA,NA,NA,NA,NA,NA,NA,NA,NA,NA,NA,NA,NA,NA,NA,NA,NA,NA,NA,NA,NA,NA,NA,NA,NA,NA,NA,NA,NA,NA,NA,NA,NA,NA,NA,NA,NA,NA,NA,NA,NA,NA,NA,,,NA
image-keyboard-response,81,162199,0.0-4.0-1.33,mr81dhy9r5lxu8r,0,Windows,Chrome,1152.9999999329448,_faces/AM04_S_X.jpg,NA,,,emotionRatingFaceWindow,NA,NA,NA,81,4,0,fearful,33,AM04_S_X,AM04,A,M,S,X,0,,NA,,,,,,,NA,NA,NA,NA,NA,NA,NA,NA,NA,NA,NA,NA,NA,NA,NA,NA,NA,NA,NA,NA,NA,NA,NA,NA,NA,NA,NA,NA,NA,NA,NA,NA,NA,NA,NA,NA,NA,NA,NA,NA,NA,NA,NA,NA,NA,NA,NA,NA,NA,NA,NA,NA,NA,NA,NA,NA,NA,NA,NA,NA,NA,NA,NA,NA,NA,NA,NA,NA,NA,NA,NA,NA,NA,NA,NA,NA,NA,NA,NA,NA,NA,NA,NA,NA,NA,NA,NA,NA,NA,NA,NA,NA,,,NA
html-keyboard-response,82,163207,0.0-4.0-0.34,mr81dhy9r5lxu8r,0,Windows,Chrome,NA,+,NA,,,fixation,NA,NA,NA,NA,NA,NA,,NA,,,,,,,NA,,NA,,,,,,,NA,NA,NA,NA,NA,NA,NA,NA,NA,NA,NA,NA,NA,NA,NA,NA,NA,NA,NA,NA,NA,NA,NA,NA,NA,NA,NA,NA,NA,NA,NA,NA,NA,NA,NA,NA,NA,NA,NA,NA,NA,NA,NA,NA,NA,NA,NA,NA,NA,NA,NA,NA,NA,NA,NA,NA,NA,NA,NA,NA,NA,NA,NA,NA,NA,NA,NA,NA,NA,NA,NA,NA,NA,NA,NA,NA,NA,NA,NA,NA,NA,NA,NA,NA,NA,NA,NA,NA,NA,NA,NA,NA,,,NA
image-keyboard-response,83,164778,0.0-4.0-1.34,mr81dhy9r5lxu8r,0,Windows,Chrome,1567.9999999701977,_faces/HF09_F_U.jpg,NA,,,emotionRatingFaceWindow,NA,NA,NA,80,4,0,fearful,34,HF09_F_U,HF09,H,F,F,U,1,,NA,,,,,,,NA,NA,NA,NA,NA,NA,NA,NA,NA,NA,NA,NA,NA,NA,NA,NA,NA,NA,NA,NA,NA,NA,NA,NA,NA,NA,NA,NA,NA,NA,NA,NA,NA,NA,NA,NA,NA,NA,NA,NA,NA,NA,NA,NA,NA,NA,NA,NA,NA,NA,NA,NA,NA,NA,NA,NA,NA,NA,NA,NA,NA,NA,NA,NA,NA,NA,NA,NA,NA,NA,NA,NA,NA,NA,NA,NA,NA,NA,NA,NA,NA,NA,NA,NA,NA,NA,NA,NA,NA,NA,NA,NA,,,NA
html-keyboard-response,84,165784,0.0-4.0-0.35,mr81dhy9r5lxu8r,0,Windows,Chrome,NA,+,NA,,,fixation,NA,NA,NA,NA,NA,NA,,NA,,,,,,,NA,,NA,,,,,,,NA,NA,NA,NA,NA,NA,NA,NA,NA,NA,NA,NA,NA,NA,NA,NA,NA,NA,NA,NA,NA,NA,NA,NA,NA,NA,NA,NA,NA,NA,NA,NA,NA,NA,NA,NA,NA,NA,NA,NA,NA,NA,NA,NA,NA,NA,NA,NA,NA,NA,NA,NA,NA,NA,NA,NA,NA,NA,NA,NA,NA,NA,NA,NA,NA,NA,NA,NA,NA,NA,NA,NA,NA,NA,NA,NA,NA,NA,NA,NA,NA,NA,NA,NA,NA,NA,NA,NA,NA,NA,NA,NA,,,NA
image-keyboard-response,85,167670,0.0-4.0-1.35,mr81dhy9r5lxu8r,0,Windows,Chrome,1884.000000078231,_faces/WM13_F_L.jpg,NA,,,emotionRatingFaceWindow,NA,NA,NA,80,4,0,fearful,35,WM13_F_L,WM13,W,M,F,L,1,,NA,,,,,,,NA,NA,NA,NA,NA,NA,NA,NA,NA,NA,NA,NA,NA,NA,NA,NA,NA,NA,NA,NA,NA,NA,NA,NA,NA,NA,NA,NA,NA,NA,NA,NA,NA,NA,NA,NA,NA,NA,NA,NA,NA,NA,NA,NA,NA,NA,NA,NA,NA,NA,NA,NA,NA,NA,NA,NA,NA,NA,NA,NA,NA,NA,NA,NA,NA,NA,NA,NA,NA,NA,NA,NA,NA,NA,NA,NA,NA,NA,NA,NA,NA,NA,NA,NA,NA,NA,NA,NA,NA,NA,NA,NA,,,NA
html-keyboard-response,86,168671,0.0-4.0-0.36,mr81dhy9r5lxu8r,0,Windows,Chrome,NA,+,NA,,,fixation,NA,NA,NA,NA,NA,NA,,NA,,,,,,,NA,,NA,,,,,,,NA,NA,NA,NA,NA,NA,NA,NA,NA,NA,NA,NA,NA,NA,NA,NA,NA,NA,NA,NA,NA,NA,NA,NA,NA,NA,NA,NA,NA,NA,NA,NA,NA,NA,NA,NA,NA,NA,NA,NA,NA,NA,NA,NA,NA,NA,NA,NA,NA,NA,NA,NA,NA,NA,NA,NA,NA,NA,NA,NA,NA,NA,NA,NA,NA,NA,NA,NA,NA,NA,NA,NA,NA,NA,NA,NA,NA,NA,NA,NA,NA,NA,NA,NA,NA,NA,NA,NA,NA,NA,NA,NA,,,NA
image-keyboard-response,87,170109,0.0-4.0-1.36,mr81dhy9r5lxu8r,0,Windows,Chrome,1422.9999999515712,_faces/BM16_R_L.jpg,NA,,,emotionRatingFaceWindow,NA,NA,NA,80,4,0,fearful,36,BM16_R_L,BM16,B,M,R,L,1,,NA,,,,,,,NA,NA,NA,NA,NA,NA,NA,NA,NA,NA,NA,NA,NA,NA,NA,NA,NA,NA,NA,NA,NA,NA,NA,NA,NA,NA,NA,NA,NA,NA,NA,NA,NA,NA,NA,NA,NA,NA,NA,NA,NA,NA,NA,NA,NA,NA,NA,NA,NA,NA,NA,NA,NA,NA,NA,NA,NA,NA,NA,NA,NA,NA,NA,NA,NA,NA,NA,NA,NA,NA,NA,NA,NA,NA,NA,NA,NA,NA,NA,NA,NA,NA,NA,NA,NA,NA,NA,NA,NA,NA,NA,NA,,,NA
html-keyboard-response,88,171112,0.0-4.0-0.37,mr81dhy9r5lxu8r,0,Windows,Chrome,NA,+,NA,,,fixation,NA,NA,NA,NA,NA,NA,,NA,,,,,,,NA,,NA,,,,,,,NA,NA,NA,NA,NA,NA,NA,NA,NA,NA,NA,NA,NA,NA,NA,NA,NA,NA,NA,NA,NA,NA,NA,NA,NA,NA,NA,NA,NA,NA,NA,NA,NA,NA,NA,NA,NA,NA,NA,NA,NA,NA,NA,NA,NA,NA,NA,NA,NA,NA,NA,NA,NA,NA,NA,NA,NA,NA,NA,NA,NA,NA,NA,NA,NA,NA,NA,NA,NA,NA,NA,NA,NA,NA,NA,NA,NA,NA,NA,NA,NA,NA,NA,NA,NA,NA,NA,NA,NA,NA,NA,NA,,,NA
image-keyboard-response,89,172350,0.0-4.0-1.37,mr81dhy9r5lxu8r,0,Windows,Chrome,1231.9999998435378,_faces/AF09_R_X.jpg,NA,,,emotionRatingFaceWindow,NA,NA,NA,80,4,0,fearful,37,AF09_R_X,AF09,A,F,R,X,1,,NA,,,,,,,NA,NA,NA,NA,NA,NA,NA,NA,NA,NA,NA,NA,NA,NA,NA,NA,NA,NA,NA,NA,NA,NA,NA,NA,NA,NA,NA,NA,NA,NA,NA,NA,NA,NA,NA,NA,NA,NA,NA,NA,NA,NA,NA,NA,NA,NA,NA,NA,NA,NA,NA,NA,NA,NA,NA,NA,NA,NA,NA,NA,NA,NA,NA,NA,NA,NA,NA,NA,NA,NA,NA,NA,NA,NA,NA,NA,NA,NA,NA,NA,NA,NA,NA,NA,NA,NA,NA,NA,NA,NA,NA,NA,,,NA
html-keyboard-response,90,173353,0.0-4.0-0.38,mr81dhy9r5lxu8r,0,Windows,Chrome,NA,+,NA,,,fixation,NA,NA,NA,NA,NA,NA,,NA,,,,,,,NA,,NA,,,,,,,NA,NA,NA,NA,NA,NA,NA,NA,NA,NA,NA,NA,NA,NA,NA,NA,NA,NA,NA,NA,NA,NA,NA,NA,NA,NA,NA,NA,NA,NA,NA,NA,NA,NA,NA,NA,NA,NA,NA,NA,NA,NA,NA,NA,NA,NA,NA,NA,NA,NA,NA,NA,NA,NA,NA,NA,NA,NA,NA,NA,NA,NA,NA,NA,NA,NA,NA,NA,NA,NA,NA,NA,NA,NA,NA,NA,NA,NA,NA,NA,NA,NA,NA,NA,NA,NA,NA,NA,NA,NA,NA,NA,,,NA
image-keyboard-response,91,174189,0.0-4.0-1.38,mr81dhy9r5lxu8r,0,Windows,Chrome,834.000000031665,_faces/HF05_D_L.jpg,NA,,,emotionRatingFaceWindow,NA,NA,NA,80,4,0,fearful,38,HF05_D_L,HF05,H,F,D,L,1,,NA,,,,,,,NA,NA,NA,NA,NA,NA,NA,NA,NA,NA,NA,NA,NA,NA,NA,NA,NA,NA,NA,NA,NA,NA,NA,NA,NA,NA,NA,NA,NA,NA,NA,NA,NA,NA,NA,NA,NA,NA,NA,NA,NA,NA,NA,NA,NA,NA,NA,NA,NA,NA,NA,NA,NA,NA,NA,NA,NA,NA,NA,NA,NA,NA,NA,NA,NA,NA,NA,NA,NA,NA,NA,NA,NA,NA,NA,NA,NA,NA,NA,NA,NA,NA,NA,NA,NA,NA,NA,NA,NA,NA,NA,NA,,,NA
html-keyboard-response,92,175193,0.0-4.0-0.39,mr81dhy9r5lxu8r,0,Windows,Chrome,NA,+,NA,,,fixation,NA,NA,NA,NA,NA,NA,,NA,,,,,,,NA,,NA,,,,,,,NA,NA,NA,NA,NA,NA,NA,NA,NA,NA,NA,NA,NA,NA,NA,NA,NA,NA,NA,NA,NA,NA,NA,NA,NA,NA,NA,NA,NA,NA,NA,NA,NA,NA,NA,NA,NA,NA,NA,NA,NA,NA,NA,NA,NA,NA,NA,NA,NA,NA,NA,NA,NA,NA,NA,NA,NA,NA,NA,NA,NA,NA,NA,NA,NA,NA,NA,NA,NA,NA,NA,NA,NA,NA,NA,NA,NA,NA,NA,NA,NA,NA,NA,NA,NA,NA,NA,NA,NA,NA,NA,NA,,,NA
image-keyboard-response,93,176341,0.0-4.0-1.39,mr81dhy9r5lxu8r,0,Windows,Chrome,1137.0000001043081,_faces/BF10_F_X.jpg,NA,,,emotionRatingFaceWindow,NA,NA,NA,80,4,0,fearful,39,BF10_F_X,BF10,B,F,F,X,1,,NA,,,,,,,NA,NA,NA,NA,NA,NA,NA,NA,NA,NA,NA,NA,NA,NA,NA,NA,NA,NA,NA,NA,NA,NA,NA,NA,NA,NA,NA,NA,NA,NA,NA,NA,NA,NA,NA,NA,NA,NA,NA,NA,NA,NA,NA,NA,NA,NA,NA,NA,NA,NA,NA,NA,NA,NA,NA,NA,NA,NA,NA,NA,NA,NA,NA,NA,NA,NA,NA,NA,NA,NA,NA,NA,NA,NA,NA,NA,NA,NA,NA,NA,NA,NA,NA,NA,NA,NA,NA,NA,NA,NA,NA,NA,,,NA
html-keyboard-response,94,177342,0.0-4.0-0.40,mr81dhy9r5lxu8r,0,Windows,Chrome,NA,+,NA,,,fixation,NA,NA,NA,NA,NA,NA,,NA,,,,,,,NA,,NA,,,,,,,NA,NA,NA,NA,NA,NA,NA,NA,NA,NA,NA,NA,NA,NA,NA,NA,NA,NA,NA,NA,NA,NA,NA,NA,NA,NA,NA,NA,NA,NA,NA,NA,NA,NA,NA,NA,NA,NA,NA,NA,NA,NA,NA,NA,NA,NA,NA,NA,NA,NA,NA,NA,NA,NA,NA,NA,NA,NA,NA,NA,NA,NA,NA,NA,NA,NA,NA,NA,NA,NA,NA,NA,NA,NA,NA,NA,NA,NA,NA,NA,NA,NA,NA,NA,NA,NA,NA,NA,NA,NA,NA,NA,,,NA
image-keyboard-response,95,178900,0.0-4.0-1.40,mr81dhy9r5lxu8r,0,Windows,Chrome,1550.9999999776483,_faces/BM17_S_U.jpg,NA,,,emotionRatingFaceWindow,NA,NA,NA,81,4,0,fearful,40,BM17_S_U,BM17,B,M,S,U,0,,NA,,,,,,,NA,NA,NA,NA,NA,NA,NA,NA,NA,NA,NA,NA,NA,NA,NA,NA,NA,NA,NA,NA,NA,NA,NA,NA,NA,NA,NA,NA,NA,NA,NA,NA,NA,NA,NA,NA,NA,NA,NA,NA,NA,NA,NA,NA,NA,NA,NA,NA,NA,NA,NA,NA,NA,NA,NA,NA,NA,NA,NA,NA,NA,NA,NA,NA,NA,NA,NA,NA,NA,NA,NA,NA,NA,NA,NA,NA,NA,NA,NA,NA,NA,NA,NA,NA,NA,NA,NA,NA,NA,NA,NA,NA,,,NA
html-keyboard-response,96,179911,0.0-4.0-0.41,mr81dhy9r5lxu8r,0,Windows,Chrome,NA,+,NA,,,fixation,NA,NA,NA,NA,NA,NA,,NA,,,,,,,NA,,NA,,,,,,,NA,NA,NA,NA,NA,NA,NA,NA,NA,NA,NA,NA,NA,NA,NA,NA,NA,NA,NA,NA,NA,NA,NA,NA,NA,NA,NA,NA,NA,NA,NA,NA,NA,NA,NA,NA,NA,NA,NA,NA,NA,NA,NA,NA,NA,NA,NA,NA,NA,NA,NA,NA,NA,NA,NA,NA,NA,NA,NA,NA,NA,NA,NA,NA,NA,NA,NA,NA,NA,NA,NA,NA,NA,NA,NA,NA,NA,NA,NA,NA,NA,NA,NA,NA,NA,NA,NA,NA,NA,NA,NA,NA,,,NA
image-keyboard-response,97,181411,0.0-4.0-1.41,mr81dhy9r5lxu8r,0,Windows,Chrome,1496.0000000428408,_faces/WM13_F_X.jpg,NA,,,emotionRatingFaceWindow,NA,NA,NA,80,4,0,fearful,41,WM13_F_X,WM13,W,M,F,X,1,,NA,,,,,,,NA,NA,NA,NA,NA,NA,NA,NA,NA,NA,NA,NA,NA,NA,NA,NA,NA,NA,NA,NA,NA,NA,NA,NA,NA,NA,NA,NA,NA,NA,NA,NA,NA,NA,NA,NA,NA,NA,NA,NA,NA,NA,NA,NA,NA,NA,NA,NA,NA,NA,NA,NA,NA,NA,NA,NA,NA,NA,NA,NA,NA,NA,NA,NA,NA,NA,NA,NA,NA,NA,NA,NA,NA,NA,NA,NA,NA,NA,NA,NA,NA,NA,NA,NA,NA,NA,NA,NA,NA,NA,NA,NA,,,NA
html-keyboard-response,98,182414,0.0-4.0-0.42,mr81dhy9r5lxu8r,0,Windows,Chrome,NA,+,NA,,,fixation,NA,NA,NA,NA,NA,NA,,NA,,,,,,,NA,,NA,,,,,,,NA,NA,NA,NA,NA,NA,NA,NA,NA,NA,NA,NA,NA,NA,NA,NA,NA,NA,NA,NA,NA,NA,NA,NA,NA,NA,NA,NA,NA,NA,NA,NA,NA,NA,NA,NA,NA,NA,NA,NA,NA,NA,NA,NA,NA,NA,NA,NA,NA,NA,NA,NA,NA,NA,NA,NA,NA,NA,NA,NA,NA,NA,NA,NA,NA,NA,NA,NA,NA,NA,NA,NA,NA,NA,NA,NA,NA,NA,NA,NA,NA,NA,NA,NA,NA,NA,NA,NA,NA,NA,NA,NA,,,NA
image-keyboard-response,99,184070,0.0-4.0-1.42,mr81dhy9r5lxu8r,0,Windows,Chrome,1653.999999864027,_faces/BF15_H_L.jpg,NA,,,emotionRatingFaceWindow,NA,NA,NA,81,4,0,fearful,42,BF15_H_L,BF15,B,F,H,L,0,,NA,,,,,,,NA,NA,NA,NA,NA,NA,NA,NA,NA,NA,NA,NA,NA,NA,NA,NA,NA,NA,NA,NA,NA,NA,NA,NA,NA,NA,NA,NA,NA,NA,NA,NA,NA,NA,NA,NA,NA,NA,NA,NA,NA,NA,NA,NA,NA,NA,NA,NA,NA,NA,NA,NA,NA,NA,NA,NA,NA,NA,NA,NA,NA,NA,NA,NA,NA,NA,NA,NA,NA,NA,NA,NA,NA,NA,NA,NA,NA,NA,NA,NA,NA,NA,NA,NA,NA,NA,NA,NA,NA,NA,NA,NA,,,NA
html-keyboard-response,100,185071,0.0-4.0-0.43,mr81dhy9r5lxu8r,0,Windows,Chrome,NA,+,NA,,,fixation,NA,NA,NA,NA,NA,NA,,NA,,,,,,,NA,,NA,,,,,,,NA,NA,NA,NA,NA,NA,NA,NA,NA,NA,NA,NA,NA,NA,NA,NA,NA,NA,NA,NA,NA,NA,NA,NA,NA,NA,NA,NA,NA,NA,NA,NA,NA,NA,NA,NA,NA,NA,NA,NA,NA,NA,NA,NA,NA,NA,NA,NA,NA,NA,NA,NA,NA,NA,NA,NA,NA,NA,NA,NA,NA,NA,NA,NA,NA,NA,NA,NA,NA,NA,NA,NA,NA,NA,NA,NA,NA,NA,NA,NA,NA,NA,NA,NA,NA,NA,NA,NA,NA,NA,NA,NA,,,NA
image-keyboard-response,101,186520,0.0-4.0-1.43,mr81dhy9r5lxu8r,0,Windows,Chrome,1444.999999832362,_faces/HF04_A_L.jpg,NA,,,emotionRatingFaceWindow,NA,NA,NA,81,4,0,fearful,43,HF04_A_L,HF04,H,F,A,L,0,,NA,,,,,,,NA,NA,NA,NA,NA,NA,NA,NA,NA,NA,NA,NA,NA,NA,NA,NA,NA,NA,NA,NA,NA,NA,NA,NA,NA,NA,NA,NA,NA,NA,NA,NA,NA,NA,NA,NA,NA,NA,NA,NA,NA,NA,NA,NA,NA,NA,NA,NA,NA,NA,NA,NA,NA,NA,NA,NA,NA,NA,NA,NA,NA,NA,NA,NA,NA,NA,NA,NA,NA,NA,NA,NA,NA,NA,NA,NA,NA,NA,NA,NA,NA,NA,NA,NA,NA,NA,NA,NA,NA,NA,NA,NA,,,NA
html-keyboard-response,102,187520,0.0-4.0-0.44,mr81dhy9r5lxu8r,0,Windows,Chrome,NA,+,NA,,,fixation,NA,NA,NA,NA,NA,NA,,NA,,,,,,,NA,,NA,,,,,,,NA,NA,NA,NA,NA,NA,NA,NA,NA,NA,NA,NA,NA,NA,NA,NA,NA,NA,NA,NA,NA,NA,NA,NA,NA,NA,NA,NA,NA,NA,NA,NA,NA,NA,NA,NA,NA,NA,NA,NA,NA,NA,NA,NA,NA,NA,NA,NA,NA,NA,NA,NA,NA,NA,NA,NA,NA,NA,NA,NA,NA,NA,NA,NA,NA,NA,NA,NA,NA,NA,NA,NA,NA,NA,NA,NA,NA,NA,NA,NA,NA,NA,NA,NA,NA,NA,NA,NA,NA,NA,NA,NA,,,NA
image-keyboard-response,103,189223,0.0-4.0-1.44,mr81dhy9r5lxu8r,0,Windows,Chrome,1683.9999998919666,_faces/AM04_S_L.jpg,NA,,,emotionRatingFaceWindow,NA,NA,NA,81,4,0,fearful,44,AM04_S_L,AM04,A,M,S,L,0,,NA,,,,,,,NA,NA,NA,NA,NA,NA,NA,NA,NA,NA,NA,NA,NA,NA,NA,NA,NA,NA,NA,NA,NA,NA,NA,NA,NA,NA,NA,NA,NA,NA,NA,NA,NA,NA,NA,NA,NA,NA,NA,NA,NA,NA,NA,NA,NA,NA,NA,NA,NA,NA,NA,NA,NA,NA,NA,NA,NA,NA,NA,NA,NA,NA,NA,NA,NA,NA,NA,NA,NA,NA,NA,NA,NA,NA,NA,NA,NA,NA,NA,NA,NA,NA,NA,NA,NA,NA,NA,NA,NA,NA,NA,NA,,,NA
html-keyboard-response,104,190225,0.0-4.0-0.45,mr81dhy9r5lxu8r,0,Windows,Chrome,NA,+,NA,,,fixation,NA,NA,NA,NA,NA,NA,,NA,,,,,,,NA,,NA,,,,,,,NA,NA,NA,NA,NA,NA,NA,NA,NA,NA,NA,NA,NA,NA,NA,NA,NA,NA,NA,NA,NA,NA,NA,NA,NA,NA,NA,NA,NA,NA,NA,NA,NA,NA,NA,NA,NA,NA,NA,NA,NA,NA,NA,NA,NA,NA,NA,NA,NA,NA,NA,NA,NA,NA,NA,NA,NA,NA,NA,NA,NA,NA,NA,NA,NA,NA,NA,NA,NA,NA,NA,NA,NA,NA,NA,NA,NA,NA,NA,NA,NA,NA,NA,NA,NA,NA,NA,NA,NA,NA,NA,NA,,,NA
image-keyboard-response,105,191555,0.0-4.0-1.45,mr81dhy9r5lxu8r,0,Windows,Chrome,1324.0000000223517,_faces/BM17_S_X.jpg,NA,,,emotionRatingFaceWindow,NA,NA,NA,81,4,0,fearful,45,BM17_S_X,BM17,B,M,S,X,0,,NA,,,,,,,NA,NA,NA,NA,NA,NA,NA,NA,NA,NA,NA,NA,NA,NA,NA,NA,NA,NA,NA,NA,NA,NA,NA,NA,NA,NA,NA,NA,NA,NA,NA,NA,NA,NA,NA,NA,NA,NA,NA,NA,NA,NA,NA,NA,NA,NA,NA,NA,NA,NA,NA,NA,NA,NA,NA,NA,NA,NA,NA,NA,NA,NA,NA,NA,NA,NA,NA,NA,NA,NA,NA,NA,NA,NA,NA,NA,NA,NA,NA,NA,NA,NA,NA,NA,NA,NA,NA,NA,NA,NA,NA,NA,,,NA
html-keyboard-response,106,192556,0.0-4.0-0.46,mr81dhy9r5lxu8r,0,Windows,Chrome,NA,+,NA,,,fixation,NA,NA,NA,NA,NA,NA,,NA,,,,,,,NA,,NA,,,,,,,NA,NA,NA,NA,NA,NA,NA,NA,NA,NA,NA,NA,NA,NA,NA,NA,NA,NA,NA,NA,NA,NA,NA,NA,NA,NA,NA,NA,NA,NA,NA,NA,NA,NA,NA,NA,NA,NA,NA,NA,NA,NA,NA,NA,NA,NA,NA,NA,NA,NA,NA,NA,NA,NA,NA,NA,NA,NA,NA,NA,NA,NA,NA,NA,NA,NA,NA,NA,NA,NA,NA,NA,NA,NA,NA,NA,NA,NA,NA,NA,NA,NA,NA,NA,NA,NA,NA,NA,NA,NA,NA,NA,,,NA
image-keyboard-response,107,193740,0.0-4.0-1.46,mr81dhy9r5lxu8r,0,Windows,Chrome,1179.0000000037253,_faces/AF09_R_L.jpg,NA,,,emotionRatingFaceWindow,NA,NA,NA,81,4,0,fearful,46,AF09_R_L,AF09,A,F,R,L,0,,NA,,,,,,,NA,NA,NA,NA,NA,NA,NA,NA,NA,NA,NA,NA,NA,NA,NA,NA,NA,NA,NA,NA,NA,NA,NA,NA,NA,NA,NA,NA,NA,NA,NA,NA,NA,NA,NA,NA,NA,NA,NA,NA,NA,NA,NA,NA,NA,NA,NA,NA,NA,NA,NA,NA,NA,NA,NA,NA,NA,NA,NA,NA,NA,NA,NA,NA,NA,NA,NA,NA,NA,NA,NA,NA,NA,NA,NA,NA,NA,NA,NA,NA,NA,NA,NA,NA,NA,NA,NA,NA,NA,NA,NA,NA,,,NA
html-keyboard-response,108,194754,0.0-4.0-0.47,mr81dhy9r5lxu8r,0,Windows,Chrome,NA,+,NA,,,fixation,NA,NA,NA,NA,NA,NA,,NA,,,,,,,NA,,NA,,,,,,,NA,NA,NA,NA,NA,NA,NA,NA,NA,NA,NA,NA,NA,NA,NA,NA,NA,NA,NA,NA,NA,NA,NA,NA,NA,NA,NA,NA,NA,NA,NA,NA,NA,NA,NA,NA,NA,NA,NA,NA,NA,NA,NA,NA,NA,NA,NA,NA,NA,NA,NA,NA,NA,NA,NA,NA,NA,NA,NA,NA,NA,NA,NA,NA,NA,NA,NA,NA,NA,NA,NA,NA,NA,NA,NA,NA,NA,NA,NA,NA,NA,NA,NA,NA,NA,NA,NA,NA,NA,NA,NA,NA,,,NA
image-keyboard-response,109,196700,0.0-4.0-1.47,mr81dhy9r5lxu8r,0,Windows,Chrome,1943.9999999012798,_faces/HF04_A_U.jpg,NA,,,emotionRatingFaceWindow,NA,NA,NA,81,4,0,fearful,47,HF04_A_U,HF04,H,F,A,U,0,,NA,,,,,,,NA,NA,NA,NA,NA,NA,NA,NA,NA,NA,NA,NA,NA,NA,NA,NA,NA,NA,NA,NA,NA,NA,NA,NA,NA,NA,NA,NA,NA,NA,NA,NA,NA,NA,NA,NA,NA,NA,NA,NA,NA,NA,NA,NA,NA,NA,NA,NA,NA,NA,NA,NA,NA,NA,NA,NA,NA,NA,NA,NA,NA,NA,NA,NA,NA,NA,NA,NA,NA,NA,NA,NA,NA,NA,NA,NA,NA,NA,NA,NA,NA,NA,NA,NA,NA,NA,NA,NA,NA,NA,NA,NA,,,NA
html-keyboard-response,110,197707,0.0-4.0-0.48,mr81dhy9r5lxu8r,0,Windows,Chrome,NA,+,NA,,,fixation,NA,NA,NA,NA,NA,NA,,NA,,,,,,,NA,,NA,,,,,,,NA,NA,NA,NA,NA,NA,NA,NA,NA,NA,NA,NA,NA,NA,NA,NA,NA,NA,NA,NA,NA,NA,NA,NA,NA,NA,NA,NA,NA,NA,NA,NA,NA,NA,NA,NA,NA,NA,NA,NA,NA,NA,NA,NA,NA,NA,NA,NA,NA,NA,NA,NA,NA,NA,NA,NA,NA,NA,NA,NA,NA,NA,NA,NA,NA,NA,NA,NA,NA,NA,NA,NA,NA,NA,NA,NA,NA,NA,NA,NA,NA,NA,NA,NA,NA,NA,NA,NA,NA,NA,NA,NA,,,NA
image-keyboard-response,111,199070,0.0-4.0-1.48,mr81dhy9r5lxu8r,0,Windows,Chrome,1359.9999998696148,_faces/HM09_R_X.jpg,NA,,,emotionRatingFaceWindow,NA,NA,NA,81,4,0,fearful,48,HM09_R_X,HM09,H,M,R,X,0,,NA,,,,,,,NA,NA,NA,NA,NA,NA,NA,NA,NA,NA,NA,NA,NA,NA,NA,NA,NA,NA,NA,NA,NA,NA,NA,NA,NA,NA,NA,NA,NA,NA,NA,NA,NA,NA,NA,NA,NA,NA,NA,NA,NA,NA,NA,NA,NA,NA,NA,NA,NA,NA,NA,NA,NA,NA,NA,NA,NA,NA,NA,NA,NA,NA,NA,NA,NA,NA,NA,NA,NA,NA,NA,NA,NA,NA,NA,NA,NA,NA,NA,NA,NA,NA,NA,NA,NA,NA,NA,NA,NA,NA,NA,NA,,,NA
html-keyboard-response,112,200071,0.0-4.0-0.49,mr81dhy9r5lxu8r,0,Windows,Chrome,NA,+,NA,,,fixation,NA,NA,NA,NA,NA,NA,,NA,,,,,,,NA,,NA,,,,,,,NA,NA,NA,NA,NA,NA,NA,NA,NA,NA,NA,NA,NA,NA,NA,NA,NA,NA,NA,NA,NA,NA,NA,NA,NA,NA,NA,NA,NA,NA,NA,NA,NA,NA,NA,NA,NA,NA,NA,NA,NA,NA,NA,NA,NA,NA,NA,NA,NA,NA,NA,NA,NA,NA,NA,NA,NA,NA,NA,NA,NA,NA,NA,NA,NA,NA,NA,NA,NA,NA,NA,NA,NA,NA,NA,NA,NA,NA,NA,NA,NA,NA,NA,NA,NA,NA,NA,NA,NA,NA,NA,NA,,,NA
image-keyboard-response,113,201831,0.0-4.0-1.49,mr81dhy9r5lxu8r,0,Windows,Chrome,1758.000000147149,_faces/AM07_A_L.jpg,NA,,,emotionRatingFaceWindow,NA,NA,NA,81,4,0,fearful,49,AM07_A_L,AM07,A,M,A,L,0,,NA,,,,,,,NA,NA,NA,NA,NA,NA,NA,NA,NA,NA,NA,NA,NA,NA,NA,NA,NA,NA,NA,NA,NA,NA,NA,NA,NA,NA,NA,NA,NA,NA,NA,NA,NA,NA,NA,NA,NA,NA,NA,NA,NA,NA,NA,NA,NA,NA,NA,NA,NA,NA,NA,NA,NA,NA,NA,NA,NA,NA,NA,NA,NA,NA,NA,NA,NA,NA,NA,NA,NA,NA,NA,NA,NA,NA,NA,NA,NA,NA,NA,NA,NA,NA,NA,NA,NA,NA,NA,NA,NA,NA,NA,NA,,,NA
html-keyboard-response,114,202834,0.0-4.0-0.50,mr81dhy9r5lxu8r,0,Windows,Chrome,NA,+,NA,,,fixation,NA,NA,NA,NA,NA,NA,,NA,,,,,,,NA,,NA,,,,,,,NA,NA,NA,NA,NA,NA,NA,NA,NA,NA,NA,NA,NA,NA,NA,NA,NA,NA,NA,NA,NA,NA,NA,NA,NA,NA,NA,NA,NA,NA,NA,NA,NA,NA,NA,NA,NA,NA,NA,NA,NA,NA,NA,NA,NA,NA,NA,NA,NA,NA,NA,NA,NA,NA,NA,NA,NA,NA,NA,NA,NA,NA,NA,NA,NA,NA,NA,NA,NA,NA,NA,NA,NA,NA,NA,NA,NA,NA,NA,NA,NA,NA,NA,NA,NA,NA,NA,NA,NA,NA,NA,NA,,,NA
image-keyboard-response,115,204715,0.0-4.0-1.50,mr81dhy9r5lxu8r,0,Windows,Chrome,1869.999999878928,_faces/WF02_S_X.jpg,NA,,,emotionRatingFaceWindow,NA,NA,NA,80,4,0,fearful,50,WF02_S_X,WF02,W,F,S,X,1,,NA,,,,,,,NA,NA,NA,NA,NA,NA,NA,NA,NA,NA,NA,NA,NA,NA,NA,NA,NA,NA,NA,NA,NA,NA,NA,NA,NA,NA,NA,NA,NA,NA,NA,NA,NA,NA,NA,NA,NA,NA,NA,NA,NA,NA,NA,NA,NA,NA,NA,NA,NA,NA,NA,NA,NA,NA,NA,NA,NA,NA,NA,NA,NA,NA,NA,NA,NA,NA,NA,NA,NA,NA,NA,NA,NA,NA,NA,NA,NA,NA,NA,NA,NA,NA,NA,NA,NA,NA,NA,NA,NA,NA,NA,NA,,,NA
html-keyboard-response,116,205725,0.0-4.0-0.51,mr81dhy9r5lxu8r,0,Windows,Chrome,NA,+,NA,,,fixation,NA,NA,NA,NA,NA,NA,,NA,,,,,,,NA,,NA,,,,,,,NA,NA,NA,NA,NA,NA,NA,NA,NA,NA,NA,NA,NA,NA,NA,NA,NA,NA,NA,NA,NA,NA,NA,NA,NA,NA,NA,NA,NA,NA,NA,NA,NA,NA,NA,NA,NA,NA,NA,NA,NA,NA,NA,NA,NA,NA,NA,NA,NA,NA,NA,NA,NA,NA,NA,NA,NA,NA,NA,NA,NA,NA,NA,NA,NA,NA,NA,NA,NA,NA,NA,NA,NA,NA,NA,NA,NA,NA,NA,NA,NA,NA,NA,NA,NA,NA,NA,NA,NA,NA,NA,NA,,,NA
image-keyboard-response,117,207645,0.0-4.0-1.51,mr81dhy9r5lxu8r,0,Windows,Chrome,1917.0000001322478,_faces/HM08_H_U.jpg,NA,,,emotionRatingFaceWindow,NA,NA,NA,81,4,0,fearful,51,HM08_H_U,HM08,H,M,H,U,0,,NA,,,,,,,NA,NA,NA,NA,NA,NA,NA,NA,NA,NA,NA,NA,NA,NA,NA,NA,NA,NA,NA,NA,NA,NA,NA,NA,NA,NA,NA,NA,NA,NA,NA,NA,NA,NA,NA,NA,NA,NA,NA,NA,NA,NA,NA,NA,NA,NA,NA,NA,NA,NA,NA,NA,NA,NA,NA,NA,NA,NA,NA,NA,NA,NA,NA,NA,NA,NA,NA,NA,NA,NA,NA,NA,NA,NA,NA,NA,NA,NA,NA,NA,NA,NA,NA,NA,NA,NA,NA,NA,NA,NA,NA,NA,,,NA
html-keyboard-response,118,208661,0.0-4.0-0.52,mr81dhy9r5lxu8r,0,Windows,Chrome,NA,+,NA,,,fixation,NA,NA,NA,NA,NA,NA,,NA,,,,,,,NA,,NA,,,,,,,NA,NA,NA,NA,NA,NA,NA,NA,NA,NA,NA,NA,NA,NA,NA,NA,NA,NA,NA,NA,NA,NA,NA,NA,NA,NA,NA,NA,NA,NA,NA,NA,NA,NA,NA,NA,NA,NA,NA,NA,NA,NA,NA,NA,NA,NA,NA,NA,NA,NA,NA,NA,NA,NA,NA,NA,NA,NA,NA,NA,NA,NA,NA,NA,NA,NA,NA,NA,NA,NA,NA,NA,NA,NA,NA,NA,NA,NA,NA,NA,NA,NA,NA,NA,NA,NA,NA,NA,NA,NA,NA,NA,,,NA
image-keyboard-response,119,210260,0.0-4.0-1.52,mr81dhy9r5lxu8r,0,Windows,Chrome,1590.000000083819,_faces/AM07_A_X.jpg,NA,,,emotionRatingFaceWindow,NA,NA,NA,81,4,0,fearful,52,AM07_A_X,AM07,A,M,A,X,0,,NA,,,,,,,NA,NA,NA,NA,NA,NA,NA,NA,NA,NA,NA,NA,NA,NA,NA,NA,NA,NA,NA,NA,NA,NA,NA,NA,NA,NA,NA,NA,NA,NA,NA,NA,NA,NA,NA,NA,NA,NA,NA,NA,NA,NA,NA,NA,NA,NA,NA,NA,NA,NA,NA,NA,NA,NA,NA,NA,NA,NA,NA,NA,NA,NA,NA,NA,NA,NA,NA,NA,NA,NA,NA,NA,NA,NA,NA,NA,NA,NA,NA,NA,NA,NA,NA,NA,NA,NA,NA,NA,NA,NA,NA,NA,,,NA
html-keyboard-response,120,211260,0.0-4.0-0.53,mr81dhy9r5lxu8r,0,Windows,Chrome,NA,+,NA,,,fixation,NA,NA,NA,NA,NA,NA,,NA,,,,,,,NA,,NA,,,,,,,NA,NA,NA,NA,NA,NA,NA,NA,NA,NA,NA,NA,NA,NA,NA,NA,NA,NA,NA,NA,NA,NA,NA,NA,NA,NA,NA,NA,NA,NA,NA,NA,NA,NA,NA,NA,NA,NA,NA,NA,NA,NA,NA,NA,NA,NA,NA,NA,NA,NA,NA,NA,NA,NA,NA,NA,NA,NA,NA,NA,NA,NA,NA,NA,NA,NA,NA,NA,NA,NA,NA,NA,NA,NA,NA,NA,NA,NA,NA,NA,NA,NA,NA,NA,NA,NA,NA,NA,NA,NA,NA,NA,,,NA
image-keyboard-response,121,212350,0.0-4.0-1.53,mr81dhy9r5lxu8r,0,Windows,Chrome,1086.9999998249114,_faces/BF10_F_U.jpg,NA,,,emotionRatingFaceWindow,NA,NA,NA,81,4,0,fearful,53,BF10_F_U,BF10,B,F,F,U,0,,NA,,,,,,,NA,NA,NA,NA,NA,NA,NA,NA,NA,NA,NA,NA,NA,NA,NA,NA,NA,NA,NA,NA,NA,NA,NA,NA,NA,NA,NA,NA,NA,NA,NA,NA,NA,NA,NA,NA,NA,NA,NA,NA,NA,NA,NA,NA,NA,NA,NA,NA,NA,NA,NA,NA,NA,NA,NA,NA,NA,NA,NA,NA,NA,NA,NA,NA,NA,NA,NA,NA,NA,NA,NA,NA,NA,NA,NA,NA,NA,NA,NA,NA,NA,NA,NA,NA,NA,NA,NA,NA,NA,NA,NA,NA,,,NA
html-button-response,122,225292,0.0-5.0-0.0,mr81dhy9r5lxu8r,0,Windows,Chrome,12939.000000013039,"<p>This round, you will rate whether each face looks <b>disgusted</b> or not.</p><p>If the face looks <b>disgusted</b>, press the letter <b>P</b>. If the face does <b>NOT</b> look disgusted, press the letter <b>Q</b>.</p><p>Please respond as quickly and accurately as possible when you see each face appear.</p><p>Click continue when you are ready to start this round.</p>",0,,,,NA,NA,NA,NA,NA,NA,,NA,,,,,,,NA,,NA,,,,,,,NA,NA,NA,NA,NA,NA,NA,NA,NA,NA,NA,NA,NA,NA,NA,NA,NA,NA,NA,NA,NA,NA,NA,NA,NA,NA,NA,NA,NA,NA,NA,NA,NA,NA,NA,NA,NA,NA,NA,NA,NA,NA,NA,NA,NA,NA,NA,NA,NA,NA,NA,NA,NA,NA,NA,NA,NA,NA,NA,NA,NA,NA,NA,NA,NA,NA,NA,NA,NA,NA,NA,NA,NA,NA,NA,NA,NA,NA,NA,NA,NA,NA,NA,NA,NA,NA,NA,NA,NA,NA,NA,NA,,,NA
survey-multi-choice,123,231054,0.0-5.0-1.0,mr81dhy9r5lxu8r,0,Windows,Chrome,5250,,NA,"{""CheckEmotionRating"":""disgusted""}",[0],instructionChecks,TRUE,NA,NA,NA,NA,NA,,NA,,,,,,,NA,,NA,,,,,,,NA,NA,NA,NA,NA,NA,NA,NA,NA,NA,NA,NA,NA,NA,NA,NA,NA,NA,NA,NA,NA,NA,NA,NA,NA,NA,NA,NA,NA,NA,NA,NA,NA,NA,NA,NA,NA,NA,NA,NA,NA,NA,NA,NA,NA,NA,NA,NA,NA,NA,NA,NA,NA,NA,NA,NA,NA,NA,NA,NA,NA,NA,NA,NA,NA,NA,NA,NA,NA,NA,NA,NA,NA,NA,NA,NA,NA,NA,NA,NA,NA,NA,NA,NA,NA,NA,NA,NA,NA,NA,NA,NA,,,NA
survey-html-form,124,239248,0.0-5.0-2.0,mr81dhy9r5lxu8r,0,Windows,Chrome,7679.999999934807,,NA,"{""checkKeyYes"":""p"",""checkKeyNo"":""q""}",,instructionChecks,NA,TRUE,TRUE,NA,NA,NA,,NA,,,,,,,NA,,NA,,,,,,,NA,NA,NA,NA,NA,NA,NA,NA,NA,NA,NA,NA,NA,NA,NA,NA,NA,NA,NA,NA,NA,NA,NA,NA,NA,NA,NA,NA,NA,NA,NA,NA,NA,NA,NA,NA,NA,NA,NA,NA,NA,NA,NA,NA,NA,NA,NA,NA,NA,NA,NA,NA,NA,NA,NA,NA,NA,NA,NA,NA,NA,NA,NA,NA,NA,NA,NA,NA,NA,NA,NA,NA,NA,NA,NA,NA,NA,NA,NA,NA,NA,NA,NA,NA,NA,NA,NA,NA,NA,NA,NA,NA,,,NA
html-keyboard-response,125,240769,0.0-6.0-0.0,mr81dhy9r5lxu8r,0,Windows,Chrome,NA,+,NA,,,fixation,NA,NA,NA,NA,NA,NA,,NA,,,,,,,NA,,NA,,,,,,,NA,NA,NA,NA,NA,NA,NA,NA,NA,NA,NA,NA,NA,NA,NA,NA,NA,NA,NA,NA,NA,NA,NA,NA,NA,NA,NA,NA,NA,NA,NA,NA,NA,NA,NA,NA,NA,NA,NA,NA,NA,NA,NA,NA,NA,NA,NA,NA,NA,NA,NA,NA,NA,NA,NA,NA,NA,NA,NA,NA,NA,NA,NA,NA,NA,NA,NA,NA,NA,NA,NA,NA,NA,NA,NA,NA,NA,NA,NA,NA,NA,NA,NA,NA,NA,NA,NA,NA,NA,NA,NA,NA,,,NA
image-keyboard-response,126,243230,0.0-6.0-1.0,mr81dhy9r5lxu8r,0,Windows,Chrome,2458.000000100583,_faces/AM11_H_U.jpg,NA,,,emotionRatingFaceWindow,NA,NA,NA,81,6,1,disgusted,54,AM11_H_U,AM11,A,M,H,U,0,,NA,,,,,,,NA,NA,NA,NA,NA,NA,NA,NA,NA,NA,NA,NA,NA,NA,NA,NA,NA,NA,NA,NA,NA,NA,NA,NA,NA,NA,NA,NA,NA,NA,NA,NA,NA,NA,NA,NA,NA,NA,NA,NA,NA,NA,NA,NA,NA,NA,NA,NA,NA,NA,NA,NA,NA,NA,NA,NA,NA,NA,NA,NA,NA,NA,NA,NA,NA,NA,NA,NA,NA,NA,NA,NA,NA,NA,NA,NA,NA,NA,NA,NA,NA,NA,NA,NA,NA,NA,NA,NA,NA,NA,NA,NA,,,NA
html-keyboard-response,127,244231,0.0-6.0-0.1,mr81dhy9r5lxu8r,0,Windows,Chrome,NA,+,NA,,,fixation,NA,NA,NA,NA,NA,NA,,NA,,,,,,,NA,,NA,,,,,,,NA,NA,NA,NA,NA,NA,NA,NA,NA,NA,NA,NA,NA,NA,NA,NA,NA,NA,NA,NA,NA,NA,NA,NA,NA,NA,NA,NA,NA,NA,NA,NA,NA,NA,NA,NA,NA,NA,NA,NA,NA,NA,NA,NA,NA,NA,NA,NA,NA,NA,NA,NA,NA,NA,NA,NA,NA,NA,NA,NA,NA,NA,NA,NA,NA,NA,NA,NA,NA,NA,NA,NA,NA,NA,NA,NA,NA,NA,NA,NA,NA,NA,NA,NA,NA,NA,NA,NA,NA,NA,NA,NA,,,NA
image-keyboard-response,128,245462,0.0-6.0-1.1,mr81dhy9r5lxu8r,0,Windows,Chrome,1228.0000001192093,_faces/BM16_A_X.jpg,NA,,,emotionRatingFaceWindow,NA,NA,NA,80,6,1,disgusted,55,BM16_A_X,BM16,B,M,A,X,1,,NA,,,,,,,NA,NA,NA,NA,NA,NA,NA,NA,NA,NA,NA,NA,NA,NA,NA,NA,NA,NA,NA,NA,NA,NA,NA,NA,NA,NA,NA,NA,NA,NA,NA,NA,NA,NA,NA,NA,NA,NA,NA,NA,NA,NA,NA,NA,NA,NA,NA,NA,NA,NA,NA,NA,NA,NA,NA,NA,NA,NA,NA,NA,NA,NA,NA,NA,NA,NA,NA,NA,NA,NA,NA,NA,NA,NA,NA,NA,NA,NA,NA,NA,NA,NA,NA,NA,NA,NA,NA,NA,NA,NA,NA,NA,,,NA
html-keyboard-response,129,246462,0.0-6.0-0.2,mr81dhy9r5lxu8r,0,Windows,Chrome,NA,+,NA,,,fixation,NA,NA,NA,NA,NA,NA,,NA,,,,,,,NA,,NA,,,,,,,NA,NA,NA,NA,NA,NA,NA,NA,NA,NA,NA,NA,NA,NA,NA,NA,NA,NA,NA,NA,NA,NA,NA,NA,NA,NA,NA,NA,NA,NA,NA,NA,NA,NA,NA,NA,NA,NA,NA,NA,NA,NA,NA,NA,NA,NA,NA,NA,NA,NA,NA,NA,NA,NA,NA,NA,NA,NA,NA,NA,NA,NA,NA,NA,NA,NA,NA,NA,NA,NA,NA,NA,NA,NA,NA,NA,NA,NA,NA,NA,NA,NA,NA,NA,NA,NA,NA,NA,NA,NA,NA,NA,,,NA
image-keyboard-response,130,247520,0.0-6.0-1.2,mr81dhy9r5lxu8r,0,Windows,Chrome,1054.9999999348074,_faces/WM09_H_L.jpg,NA,,,emotionRatingFaceWindow,NA,NA,NA,81,6,1,disgusted,56,WM09_H_L,WM09,W,M,H,L,0,,NA,,,,,,,NA,NA,NA,NA,NA,NA,NA,NA,NA,NA,NA,NA,NA,NA,NA,NA,NA,NA,NA,NA,NA,NA,NA,NA,NA,NA,NA,NA,NA,NA,NA,NA,NA,NA,NA,NA,NA,NA,NA,NA,NA,NA,NA,NA,NA,NA,NA,NA,NA,NA,NA,NA,NA,NA,NA,NA,NA,NA,NA,NA,NA,NA,NA,NA,NA,NA,NA,NA,NA,NA,NA,NA,NA,NA,NA,NA,NA,NA,NA,NA,NA,NA,NA,NA,NA,NA,NA,NA,NA,NA,NA,NA,,,NA
html-keyboard-response,131,248536,0.0-6.0-0.3,mr81dhy9r5lxu8r,0,Windows,Chrome,NA,+,NA,,,fixation,NA,NA,NA,NA,NA,NA,,NA,,,,,,,NA,,NA,,,,,,,NA,NA,NA,NA,NA,NA,NA,NA,NA,NA,NA,NA,NA,NA,NA,NA,NA,NA,NA,NA,NA,NA,NA,NA,NA,NA,NA,NA,NA,NA,NA,NA,NA,NA,NA,NA,NA,NA,NA,NA,NA,NA,NA,NA,NA,NA,NA,NA,NA,NA,NA,NA,NA,NA,NA,NA,NA,NA,NA,NA,NA,NA,NA,NA,NA,NA,NA,NA,NA,NA,NA,NA,NA,NA,NA,NA,NA,NA,NA,NA,NA,NA,NA,NA,NA,NA,NA,NA,NA,NA,NA,NA,,,NA
image-keyboard-response,132,248583,0.0-6.0-1.3,mr81dhy9r5lxu8r,0,Windows,Chrome,44.999999925494194,_faces/AM04_D_L.jpg,NA,,,emotionRatingFaceWindow,NA,NA,NA,81,6,1,disgusted,57,AM04_D_L,AM04,A,M,D,L,0,,NA,,,,,,,NA,NA,NA,NA,NA,NA,NA,NA,NA,NA,NA,NA,NA,NA,NA,NA,NA,NA,NA,NA,NA,NA,NA,NA,NA,NA,NA,NA,NA,NA,NA,NA,NA,NA,NA,NA,NA,NA,NA,NA,NA,NA,NA,NA,NA,NA,NA,NA,NA,NA,NA,NA,NA,NA,NA,NA,NA,NA,NA,NA,NA,NA,NA,NA,NA,NA,NA,NA,NA,NA,NA,NA,NA,NA,NA,NA,NA,NA,NA,NA,NA,NA,NA,NA,NA,NA,NA,NA,NA,NA,NA,NA,,,NA
html-keyboard-response,133,249598,0.0-6.0-0.4,mr81dhy9r5lxu8r,0,Windows,Chrome,NA,+,NA,,,fixation,NA,NA,NA,NA,NA,NA,,NA,,,,,,,NA,,NA,,,,,,,NA,NA,NA,NA,NA,NA,NA,NA,NA,NA,NA,NA,NA,NA,NA,NA,NA,NA,NA,NA,NA,NA,NA,NA,NA,NA,NA,NA,NA,NA,NA,NA,NA,NA,NA,NA,NA,NA,NA,NA,NA,NA,NA,NA,NA,NA,NA,NA,NA,NA,NA,NA,NA,NA,NA,NA,NA,NA,NA,NA,NA,NA,NA,NA,NA,NA,NA,NA,NA,NA,NA,NA,NA,NA,NA,NA,NA,NA,NA,NA,NA,NA,NA,NA,NA,NA,NA,NA,NA,NA,NA,NA,,,NA
image-keyboard-response,134,250410,0.0-6.0-1.4,mr81dhy9r5lxu8r,0,Windows,Chrome,807.9999999608845,_faces/AF09_A_X.jpg,NA,,,emotionRatingFaceWindow,NA,NA,NA,81,6,1,disgusted,58,AF09_A_X,AF09,A,F,A,X,0,,NA,,,,,,,NA,NA,NA,NA,NA,NA,NA,NA,NA,NA,NA,NA,NA,NA,NA,NA,NA,NA,NA,NA,NA,NA,NA,NA,NA,NA,NA,NA,NA,NA,NA,NA,NA,NA,NA,NA,NA,NA,NA,NA,NA,NA,NA,NA,NA,NA,NA,NA,NA,NA,NA,NA,NA,NA,NA,NA,NA,NA,NA,NA,NA,NA,NA,NA,NA,NA,NA,NA,NA,NA,NA,NA,NA,NA,NA,NA,NA,NA,NA,NA,NA,NA,NA,NA,NA,NA,NA,NA,NA,NA,NA,NA,,,NA
html-keyboard-response,135,251425,0.0-6.0-0.5,mr81dhy9r5lxu8r,0,Windows,Chrome,NA,+,NA,,,fixation,NA,NA,NA,NA,NA,NA,,NA,,,,,,,NA,,NA,,,,,,,NA,NA,NA,NA,NA,NA,NA,NA,NA,NA,NA,NA,NA,NA,NA,NA,NA,NA,NA,NA,NA,NA,NA,NA,NA,NA,NA,NA,NA,NA,NA,NA,NA,NA,NA,NA,NA,NA,NA,NA,NA,NA,NA,NA,NA,NA,NA,NA,NA,NA,NA,NA,NA,NA,NA,NA,NA,NA,NA,NA,NA,NA,NA,NA,NA,NA,NA,NA,NA,NA,NA,NA,NA,NA,NA,NA,NA,NA,NA,NA,NA,NA,NA,NA,NA,NA,NA,NA,NA,NA,NA,NA,,,NA
image-keyboard-response,136,252210,0.0-6.0-1.5,mr81dhy9r5lxu8r,0,Windows,Chrome,783.0000000540167,_faces/HF04_F_U.jpg,NA,,,emotionRatingFaceWindow,NA,NA,NA,81,6,1,disgusted,59,HF04_F_U,HF04,H,F,F,U,0,,NA,,,,,,,NA,NA,NA,NA,NA,NA,NA,NA,NA,NA,NA,NA,NA,NA,NA,NA,NA,NA,NA,NA,NA,NA,NA,NA,NA,NA,NA,NA,NA,NA,NA,NA,NA,NA,NA,NA,NA,NA,NA,NA,NA,NA,NA,NA,NA,NA,NA,NA,NA,NA,NA,NA,NA,NA,NA,NA,NA,NA,NA,NA,NA,NA,NA,NA,NA,NA,NA,NA,NA,NA,NA,NA,NA,NA,NA,NA,NA,NA,NA,NA,NA,NA,NA,NA,NA,NA,NA,NA,NA,NA,NA,NA,,,NA
html-keyboard-response,137,253223,0.0-6.0-0.6,mr81dhy9r5lxu8r,0,Windows,Chrome,NA,+,NA,,,fixation,NA,NA,NA,NA,NA,NA,,NA,,,,,,,NA,,NA,,,,,,,NA,NA,NA,NA,NA,NA,NA,NA,NA,NA,NA,NA,NA,NA,NA,NA,NA,NA,NA,NA,NA,NA,NA,NA,NA,NA,NA,NA,NA,NA,NA,NA,NA,NA,NA,NA,NA,NA,NA,NA,NA,NA,NA,NA,NA,NA,NA,NA,NA,NA,NA,NA,NA,NA,NA,NA,NA,NA,NA,NA,NA,NA,NA,NA,NA,NA,NA,NA,NA,NA,NA,NA,NA,NA,NA,NA,NA,NA,NA,NA,NA,NA,NA,NA,NA,NA,NA,NA,NA,NA,NA,NA,,,NA
image-keyboard-response,138,254480,0.0-6.0-1.6,mr81dhy9r5lxu8r,0,Windows,Chrome,1246.999999973923,_faces/HF09_R_L.jpg,NA,,,emotionRatingFaceWindow,NA,NA,NA,80,6,1,disgusted,60,HF09_R_L,HF09,H,F,R,L,1,,NA,,,,,,,NA,NA,NA,NA,NA,NA,NA,NA,NA,NA,NA,NA,NA,NA,NA,NA,NA,NA,NA,NA,NA,NA,NA,NA,NA,NA,NA,NA,NA,NA,NA,NA,NA,NA,NA,NA,NA,NA,NA,NA,NA,NA,NA,NA,NA,NA,NA,NA,NA,NA,NA,NA,NA,NA,NA,NA,NA,NA,NA,NA,NA,NA,NA,NA,NA,NA,NA,NA,NA,NA,NA,NA,NA,NA,NA,NA,NA,NA,NA,NA,NA,NA,NA,NA,NA,NA,NA,NA,NA,NA,NA,NA,,,NA
html-keyboard-response,139,255482,0.0-6.0-0.7,mr81dhy9r5lxu8r,0,Windows,Chrome,NA,+,NA,,,fixation,NA,NA,NA,NA,NA,NA,,NA,,,,,,,NA,,NA,,,,,,,NA,NA,NA,NA,NA,NA,NA,NA,NA,NA,NA,NA,NA,NA,NA,NA,NA,NA,NA,NA,NA,NA,NA,NA,NA,NA,NA,NA,NA,NA,NA,NA,NA,NA,NA,NA,NA,NA,NA,NA,NA,NA,NA,NA,NA,NA,NA,NA,NA,NA,NA,NA,NA,NA,NA,NA,NA,NA,NA,NA,NA,NA,NA,NA,NA,NA,NA,NA,NA,NA,NA,NA,NA,NA,NA,NA,NA,NA,NA,NA,NA,NA,NA,NA,NA,NA,NA,NA,NA,NA,NA,NA,,,NA
image-keyboard-response,140,256490,0.0-6.0-1.7,mr81dhy9r5lxu8r,0,Windows,Chrome,1006.0000000521541,_faces/BM16_A_L.jpg,NA,,,emotionRatingFaceWindow,NA,NA,NA,81,6,1,disgusted,61,BM16_A_L,BM16,B,M,A,L,0,,NA,,,,,,,NA,NA,NA,NA,NA,NA,NA,NA,NA,NA,NA,NA,NA,NA,NA,NA,NA,NA,NA,NA,NA,NA,NA,NA,NA,NA,NA,NA,NA,NA,NA,NA,NA,NA,NA,NA,NA,NA,NA,NA,NA,NA,NA,NA,NA,NA,NA,NA,NA,NA,NA,NA,NA,NA,NA,NA,NA,NA,NA,NA,NA,NA,NA,NA,NA,NA,NA,NA,NA,NA,NA,NA,NA,NA,NA,NA,NA,NA,NA,NA,NA,NA,NA,NA,NA,NA,NA,NA,NA,NA,NA,NA,,,NA
html-keyboard-response,141,257505,0.0-6.0-0.8,mr81dhy9r5lxu8r,0,Windows,Chrome,NA,+,NA,,,fixation,NA,NA,NA,NA,NA,NA,,NA,,,,,,,NA,,NA,,,,,,,NA,NA,NA,NA,NA,NA,NA,NA,NA,NA,NA,NA,NA,NA,NA,NA,NA,NA,NA,NA,NA,NA,NA,NA,NA,NA,NA,NA,NA,NA,NA,NA,NA,NA,NA,NA,NA,NA,NA,NA,NA,NA,NA,NA,NA,NA,NA,NA,NA,NA,NA,NA,NA,NA,NA,NA,NA,NA,NA,NA,NA,NA,NA,NA,NA,NA,NA,NA,NA,NA,NA,NA,NA,NA,NA,NA,NA,NA,NA,NA,NA,NA,NA,NA,NA,NA,NA,NA,NA,NA,NA,NA,,,NA
image-keyboard-response,142,258370,0.0-6.0-1.8,mr81dhy9r5lxu8r,0,Windows,Chrome,863.999999826774,_faces/HF09_R_X.jpg,NA,,,emotionRatingFaceWindow,NA,NA,NA,81,6,1,disgusted,62,HF09_R_X,HF09,H,F,R,X,0,,NA,,,,,,,NA,NA,NA,NA,NA,NA,NA,NA,NA,NA,NA,NA,NA,NA,NA,NA,NA,NA,NA,NA,NA,NA,NA,NA,NA,NA,NA,NA,NA,NA,NA,NA,NA,NA,NA,NA,NA,NA,NA,NA,NA,NA,NA,NA,NA,NA,NA,NA,NA,NA,NA,NA,NA,NA,NA,NA,NA,NA,NA,NA,NA,NA,NA,NA,NA,NA,NA,NA,NA,NA,NA,NA,NA,NA,NA,NA,NA,NA,NA,NA,NA,NA,NA,NA,NA,NA,NA,NA,NA,NA,NA,NA,,,NA
html-keyboard-response,143,259379,0.0-6.0-0.9,mr81dhy9r5lxu8r,0,Windows,Chrome,NA,+,NA,,,fixation,NA,NA,NA,NA,NA,NA,,NA,,,,,,,NA,,NA,,,,,,,NA,NA,NA,NA,NA,NA,NA,NA,NA,NA,NA,NA,NA,NA,NA,NA,NA,NA,NA,NA,NA,NA,NA,NA,NA,NA,NA,NA,NA,NA,NA,NA,NA,NA,NA,NA,NA,NA,NA,NA,NA,NA,NA,NA,NA,NA,NA,NA,NA,NA,NA,NA,NA,NA,NA,NA,NA,NA,NA,NA,NA,NA,NA,NA,NA,NA,NA,NA,NA,NA,NA,NA,NA,NA,NA,NA,NA,NA,NA,NA,NA,NA,NA,NA,NA,NA,NA,NA,NA,NA,NA,NA,,,NA
image-keyboard-response,144,260270,0.0-6.0-1.9,mr81dhy9r5lxu8r,0,Windows,Chrome,888.9999999664724,_faces/AF09_A_U.jpg,NA,,,emotionRatingFaceWindow,NA,NA,NA,81,6,1,disgusted,63,AF09_A_U,AF09,A,F,A,U,0,,NA,,,,,,,NA,NA,NA,NA,NA,NA,NA,NA,NA,NA,NA,NA,NA,NA,NA,NA,NA,NA,NA,NA,NA,NA,NA,NA,NA,NA,NA,NA,NA,NA,NA,NA,NA,NA,NA,NA,NA,NA,NA,NA,NA,NA,NA,NA,NA,NA,NA,NA,NA,NA,NA,NA,NA,NA,NA,NA,NA,NA,NA,NA,NA,NA,NA,NA,NA,NA,NA,NA,NA,NA,NA,NA,NA,NA,NA,NA,NA,NA,NA,NA,NA,NA,NA,NA,NA,NA,NA,NA,NA,NA,NA,NA,,,NA
html-keyboard-response,145,261275,0.0-6.0-0.10,mr81dhy9r5lxu8r,0,Windows,Chrome,NA,+,NA,,,fixation,NA,NA,NA,NA,NA,NA,,NA,,,,,,,NA,,NA,,,,,,,NA,NA,NA,NA,NA,NA,NA,NA,NA,NA,NA,NA,NA,NA,NA,NA,NA,NA,NA,NA,NA,NA,NA,NA,NA,NA,NA,NA,NA,NA,NA,NA,NA,NA,NA,NA,NA,NA,NA,NA,NA,NA,NA,NA,NA,NA,NA,NA,NA,NA,NA,NA,NA,NA,NA,NA,NA,NA,NA,NA,NA,NA,NA,NA,NA,NA,NA,NA,NA,NA,NA,NA,NA,NA,NA,NA,NA,NA,NA,NA,NA,NA,NA,NA,NA,NA,NA,NA,NA,NA,NA,NA,,,NA
image-keyboard-response,146,262250,0.0-6.0-1.10,mr81dhy9r5lxu8r,0,Windows,Chrome,959.9999999627471,_faces/HF05_H_L.jpg,NA,,,emotionRatingFaceWindow,NA,NA,NA,81,6,1,disgusted,64,HF05_H_L,HF05,H,F,H,L,0,,NA,,,,,,,NA,NA,NA,NA,NA,NA,NA,NA,NA,NA,NA,NA,NA,NA,NA,NA,NA,NA,NA,NA,NA,NA,NA,NA,NA,NA,NA,NA,NA,NA,NA,NA,NA,NA,NA,NA,NA,NA,NA,NA,NA,NA,NA,NA,NA,NA,NA,NA,NA,NA,NA,NA,NA,NA,NA,NA,NA,NA,NA,NA,NA,NA,NA,NA,NA,NA,NA,NA,NA,NA,NA,NA,NA,NA,NA,NA,NA,NA,NA,NA,NA,NA,NA,NA,NA,NA,NA,NA,NA,NA,NA,NA,,,NA
html-keyboard-response,147,263252,0.0-6.0-0.11,mr81dhy9r5lxu8r,0,Windows,Chrome,NA,+,NA,,,fixation,NA,NA,NA,NA,NA,NA,,NA,,,,,,,NA,,NA,,,,,,,NA,NA,NA,NA,NA,NA,NA,NA,NA,NA,NA,NA,NA,NA,NA,NA,NA,NA,NA,NA,NA,NA,NA,NA,NA,NA,NA,NA,NA,NA,NA,NA,NA,NA,NA,NA,NA,NA,NA,NA,NA,NA,NA,NA,NA,NA,NA,NA,NA,NA,NA,NA,NA,NA,NA,NA,NA,NA,NA,NA,NA,NA,NA,NA,NA,NA,NA,NA,NA,NA,NA,NA,NA,NA,NA,NA,NA,NA,NA,NA,NA,NA,NA,NA,NA,NA,NA,NA,NA,NA,NA,NA,,,NA
image-keyboard-response,148,264080,0.0-6.0-1.11,mr81dhy9r5lxu8r,0,Windows,Chrome,824.9999999534339,_faces/HM08_S_U.jpg,NA,,,emotionRatingFaceWindow,NA,NA,NA,80,6,1,disgusted,65,HM08_S_U,HM08,H,M,S,U,1,,NA,,,,,,,NA,NA,NA,NA,NA,NA,NA,NA,NA,NA,NA,NA,NA,NA,NA,NA,NA,NA,NA,NA,NA,NA,NA,NA,NA,NA,NA,NA,NA,NA,NA,NA,NA,NA,NA,NA,NA,NA,NA,NA,NA,NA,NA,NA,NA,NA,NA,NA,NA,NA,NA,NA,NA,NA,NA,NA,NA,NA,NA,NA,NA,NA,NA,NA,NA,NA,NA,NA,NA,NA,NA,NA,NA,NA,NA,NA,NA,NA,NA,NA,NA,NA,NA,NA,NA,NA,NA,NA,NA,NA,NA,NA,,,NA
html-keyboard-response,149,265098,0.0-6.0-0.12,mr81dhy9r5lxu8r,0,Windows,Chrome,NA,+,NA,,,fixation,NA,NA,NA,NA,NA,NA,,NA,,,,,,,NA,,NA,,,,,,,NA,NA,NA,NA,NA,NA,NA,NA,NA,NA,NA,NA,NA,NA,NA,NA,NA,NA,NA,NA,NA,NA,NA,NA,NA,NA,NA,NA,NA,NA,NA,NA,NA,NA,NA,NA,NA,NA,NA,NA,NA,NA,NA,NA,NA,NA,NA,NA,NA,NA,NA,NA,NA,NA,NA,NA,NA,NA,NA,NA,NA,NA,NA,NA,NA,NA,NA,NA,NA,NA,NA,NA,NA,NA,NA,NA,NA,NA,NA,NA,NA,NA,NA,NA,NA,NA,NA,NA,NA,NA,NA,NA,,,NA
image-keyboard-response,150,265940,0.0-6.0-1.12,mr81dhy9r5lxu8r,0,Windows,Chrome,826.0000001173466,_faces/BF15_S_U.jpg,NA,,,emotionRatingFaceWindow,NA,NA,NA,81,6,1,disgusted,66,BF15_S_U,BF15,B,F,S,U,0,,NA,,,,,,,NA,NA,NA,NA,NA,NA,NA,NA,NA,NA,NA,NA,NA,NA,NA,NA,NA,NA,NA,NA,NA,NA,NA,NA,NA,NA,NA,NA,NA,NA,NA,NA,NA,NA,NA,NA,NA,NA,NA,NA,NA,NA,NA,NA,NA,NA,NA,NA,NA,NA,NA,NA,NA,NA,NA,NA,NA,NA,NA,NA,NA,NA,NA,NA,NA,NA,NA,NA,NA,NA,NA,NA,NA,NA,NA,NA,NA,NA,NA,NA,NA,NA,NA,NA,NA,NA,NA,NA,NA,NA,NA,NA,,,NA
html-keyboard-response,151,266942,0.0-6.0-0.13,mr81dhy9r5lxu8r,0,Windows,Chrome,NA,+,NA,,,fixation,NA,NA,NA,NA,NA,NA,,NA,,,,,,,NA,,NA,,,,,,,NA,NA,NA,NA,NA,NA,NA,NA,NA,NA,NA,NA,NA,NA,NA,NA,NA,NA,NA,NA,NA,NA,NA,NA,NA,NA,NA,NA,NA,NA,NA,NA,NA,NA,NA,NA,NA,NA,NA,NA,NA,NA,NA,NA,NA,NA,NA,NA,NA,NA,NA,NA,NA,NA,NA,NA,NA,NA,NA,NA,NA,NA,NA,NA,NA,NA,NA,NA,NA,NA,NA,NA,NA,NA,NA,NA,NA,NA,NA,NA,NA,NA,NA,NA,NA,NA,NA,NA,NA,NA,NA,NA,,,NA
image-keyboard-response,152,268039,0.0-6.0-1.13,mr81dhy9r5lxu8r,0,Windows,Chrome,1091.0000000149012,_faces/BF15_S_L.jpg,NA,,,emotionRatingFaceWindow,NA,NA,NA,80,6,1,disgusted,67,BF15_S_L,BF15,B,F,S,L,1,,NA,,,,,,,NA,NA,NA,NA,NA,NA,NA,NA,NA,NA,NA,NA,NA,NA,NA,NA,NA,NA,NA,NA,NA,NA,NA,NA,NA,NA,NA,NA,NA,NA,NA,NA,NA,NA,NA,NA,NA,NA,NA,NA,NA,NA,NA,NA,NA,NA,NA,NA,NA,NA,NA,NA,NA,NA,NA,NA,NA,NA,NA,NA,NA,NA,NA,NA,NA,NA,NA,NA,NA,NA,NA,NA,NA,NA,NA,NA,NA,NA,NA,NA,NA,NA,NA,NA,NA,NA,NA,NA,NA,NA,NA,NA,,,NA
html-keyboard-response,153,269041,0.0-6.0-0.14,mr81dhy9r5lxu8r,0,Windows,Chrome,NA,+,NA,,,fixation,NA,NA,NA,NA,NA,NA,,NA,,,,,,,NA,,NA,,,,,,,NA,NA,NA,NA,NA,NA,NA,NA,NA,NA,NA,NA,NA,NA,NA,NA,NA,NA,NA,NA,NA,NA,NA,NA,NA,NA,NA,NA,NA,NA,NA,NA,NA,NA,NA,NA,NA,NA,NA,NA,NA,NA,NA,NA,NA,NA,NA,NA,NA,NA,NA,NA,NA,NA,NA,NA,NA,NA,NA,NA,NA,NA,NA,NA,NA,NA,NA,NA,NA,NA,NA,NA,NA,NA,NA,NA,NA,NA,NA,NA,NA,NA,NA,NA,NA,NA,NA,NA,NA,NA,NA,NA,,,NA
image-keyboard-response,154,270072,0.0-6.0-1.14,mr81dhy9r5lxu8r,0,Windows,Chrome,1023.0000000447035,_faces/BM17_D_L.jpg,NA,,,emotionRatingFaceWindow,NA,NA,NA,81,6,1,disgusted,68,BM17_D_L,BM17,B,M,D,L,0,,NA,,,,,,,NA,NA,NA,NA,NA,NA,NA,NA,NA,NA,NA,NA,NA,NA,NA,NA,NA,NA,NA,NA,NA,NA,NA,NA,NA,NA,NA,NA,NA,NA,NA,NA,NA,NA,NA,NA,NA,NA,NA,NA,NA,NA,NA,NA,NA,NA,NA,NA,NA,NA,NA,NA,NA,NA,NA,NA,NA,NA,NA,NA,NA,NA,NA,NA,NA,NA,NA,NA,NA,NA,NA,NA,NA,NA,NA,NA,NA,NA,NA,NA,NA,NA,NA,NA,NA,NA,NA,NA,NA,NA,NA,NA,,,NA
html-keyboard-response,155,271082,0.0-6.0-0.15,mr81dhy9r5lxu8r,0,Windows,Chrome,NA,+,NA,,,fixation,NA,NA,NA,NA,NA,NA,,NA,,,,,,,NA,,NA,,,,,,,NA,NA,NA,NA,NA,NA,NA,NA,NA,NA,NA,NA,NA,NA,NA,NA,NA,NA,NA,NA,NA,NA,NA,NA,NA,NA,NA,NA,NA,NA,NA,NA,NA,NA,NA,NA,NA,NA,NA,NA,NA,NA,NA,NA,NA,NA,NA,NA,NA,NA,NA,NA,NA,NA,NA,NA,NA,NA,NA,NA,NA,NA,NA,NA,NA,NA,NA,NA,NA,NA,NA,NA,NA,NA,NA,NA,NA,NA,NA,NA,NA,NA,NA,NA,NA,NA,NA,NA,NA,NA,NA,NA,,,NA
image-keyboard-response,156,272200,0.0-6.0-1.15,mr81dhy9r5lxu8r,0,Windows,Chrome,1114.9999999906868,_faces/BF10_R_X.jpg,NA,,,emotionRatingFaceWindow,NA,NA,NA,80,6,1,disgusted,69,BF10_R_X,BF10,B,F,R,X,1,,NA,,,,,,,NA,NA,NA,NA,NA,NA,NA,NA,NA,NA,NA,NA,NA,NA,NA,NA,NA,NA,NA,NA,NA,NA,NA,NA,NA,NA,NA,NA,NA,NA,NA,NA,NA,NA,NA,NA,NA,NA,NA,NA,NA,NA,NA,NA,NA,NA,NA,NA,NA,NA,NA,NA,NA,NA,NA,NA,NA,NA,NA,NA,NA,NA,NA,NA,NA,NA,NA,NA,NA,NA,NA,NA,NA,NA,NA,NA,NA,NA,NA,NA,NA,NA,NA,NA,NA,NA,NA,NA,NA,NA,NA,NA,,,NA
html-keyboard-response,157,273207,0.0-6.0-0.16,mr81dhy9r5lxu8r,0,Windows,Chrome,NA,+,NA,,,fixation,NA,NA,NA,NA,NA,NA,,NA,,,,,,,NA,,NA,,,,,,,NA,NA,NA,NA,NA,NA,NA,NA,NA,NA,NA,NA,NA,NA,NA,NA,NA,NA,NA,NA,NA,NA,NA,NA,NA,NA,NA,NA,NA,NA,NA,NA,NA,NA,NA,NA,NA,NA,NA,NA,NA,NA,NA,NA,NA,NA,NA,NA,NA,NA,NA,NA,NA,NA,NA,NA,NA,NA,NA,NA,NA,NA,NA,NA,NA,NA,NA,NA,NA,NA,NA,NA,NA,NA,NA,NA,NA,NA,NA,NA,NA,NA,NA,NA,NA,NA,NA,NA,NA,NA,NA,NA,,,NA
image-keyboard-response,158,274010,0.0-6.0-1.16,mr81dhy9r5lxu8r,0,Windows,Chrome,793.9999999944121,_faces/HF05_H_U.jpg,NA,,,emotionRatingFaceWindow,NA,NA,NA,81,6,1,disgusted,70,HF05_H_U,HF05,H,F,H,U,0,,NA,,,,,,,NA,NA,NA,NA,NA,NA,NA,NA,NA,NA,NA,NA,NA,NA,NA,NA,NA,NA,NA,NA,NA,NA,NA,NA,NA,NA,NA,NA,NA,NA,NA,NA,NA,NA,NA,NA,NA,NA,NA,NA,NA,NA,NA,NA,NA,NA,NA,NA,NA,NA,NA,NA,NA,NA,NA,NA,NA,NA,NA,NA,NA,NA,NA,NA,NA,NA,NA,NA,NA,NA,NA,NA,NA,NA,NA,NA,NA,NA,NA,NA,NA,NA,NA,NA,NA,NA,NA,NA,NA,NA,NA,NA,,,NA
html-keyboard-response,159,275011,0.0-6.0-0.17,mr81dhy9r5lxu8r,0,Windows,Chrome,NA,+,NA,,,fixation,NA,NA,NA,NA,NA,NA,,NA,,,,,,,NA,,NA,,,,,,,NA,NA,NA,NA,NA,NA,NA,NA,NA,NA,NA,NA,NA,NA,NA,NA,NA,NA,NA,NA,NA,NA,NA,NA,NA,NA,NA,NA,NA,NA,NA,NA,NA,NA,NA,NA,NA,NA,NA,NA,NA,NA,NA,NA,NA,NA,NA,NA,NA,NA,NA,NA,NA,NA,NA,NA,NA,NA,NA,NA,NA,NA,NA,NA,NA,NA,NA,NA,NA,NA,NA,NA,NA,NA,NA,NA,NA,NA,NA,NA,NA,NA,NA,NA,NA,NA,NA,NA,NA,NA,NA,NA,,,NA
image-keyboard-response,160,276029,0.0-6.0-1.17,mr81dhy9r5lxu8r,0,Windows,Chrome,1006.9999999832362,_faces/BM16_A_U.jpg,NA,,,emotionRatingFaceWindow,NA,NA,NA,81,6,1,disgusted,71,BM16_A_U,BM16,B,M,A,U,0,,NA,,,,,,,NA,NA,NA,NA,NA,NA,NA,NA,NA,NA,NA,NA,NA,NA,NA,NA,NA,NA,NA,NA,NA,NA,NA,NA,NA,NA,NA,NA,NA,NA,NA,NA,NA,NA,NA,NA,NA,NA,NA,NA,NA,NA,NA,NA,NA,NA,NA,NA,NA,NA,NA,NA,NA,NA,NA,NA,NA,NA,NA,NA,NA,NA,NA,NA,NA,NA,NA,NA,NA,NA,NA,NA,NA,NA,NA,NA,NA,NA,NA,NA,NA,NA,NA,NA,NA,NA,NA,NA,NA,NA,NA,NA,,,NA
html-keyboard-response,161,277030,0.0-6.0-0.18,mr81dhy9r5lxu8r,0,Windows,Chrome,NA,+,NA,,,fixation,NA,NA,NA,NA,NA,NA,,NA,,,,,,,NA,,NA,,,,,,,NA,NA,NA,NA,NA,NA,NA,NA,NA,NA,NA,NA,NA,NA,NA,NA,NA,NA,NA,NA,NA,NA,NA,NA,NA,NA,NA,NA,NA,NA,NA,NA,NA,NA,NA,NA,NA,NA,NA,NA,NA,NA,NA,NA,NA,NA,NA,NA,NA,NA,NA,NA,NA,NA,NA,NA,NA,NA,NA,NA,NA,NA,NA,NA,NA,NA,NA,NA,NA,NA,NA,NA,NA,NA,NA,NA,NA,NA,NA,NA,NA,NA,NA,NA,NA,NA,NA,NA,NA,NA,NA,NA,,,NA
image-keyboard-response,162,278000,0.0-6.0-1.18,mr81dhy9r5lxu8r,0,Windows,Chrome,968.0000001098961,_faces/BF10_R_L.jpg,NA,,,emotionRatingFaceWindow,NA,NA,NA,81,6,1,disgusted,72,BF10_R_L,BF10,B,F,R,L,0,,NA,,,,,,,NA,NA,NA,NA,NA,NA,NA,NA,NA,NA,NA,NA,NA,NA,NA,NA,NA,NA,NA,NA,NA,NA,NA,NA,NA,NA,NA,NA,NA,NA,NA,NA,NA,NA,NA,NA,NA,NA,NA,NA,NA,NA,NA,NA,NA,NA,NA,NA,NA,NA,NA,NA,NA,NA,NA,NA,NA,NA,NA,NA,NA,NA,NA,NA,NA,NA,NA,NA,NA,NA,NA,NA,NA,NA,NA,NA,NA,NA,NA,NA,NA,NA,NA,NA,NA,NA,NA,NA,NA,NA,NA,NA,,,NA
html-keyboard-response,163,279004,0.0-6.0-0.19,mr81dhy9r5lxu8r,0,Windows,Chrome,NA,+,NA,,,fixation,NA,NA,NA,NA,NA,NA,,NA,,,,,,,NA,,NA,,,,,,,NA,NA,NA,NA,NA,NA,NA,NA,NA,NA,NA,NA,NA,NA,NA,NA,NA,NA,NA,NA,NA,NA,NA,NA,NA,NA,NA,NA,NA,NA,NA,NA,NA,NA,NA,NA,NA,NA,NA,NA,NA,NA,NA,NA,NA,NA,NA,NA,NA,NA,NA,NA,NA,NA,NA,NA,NA,NA,NA,NA,NA,NA,NA,NA,NA,NA,NA,NA,NA,NA,NA,NA,NA,NA,NA,NA,NA,NA,NA,NA,NA,NA,NA,NA,NA,NA,NA,NA,NA,NA,NA,NA,,,NA
image-keyboard-response,164,280140,0.0-6.0-1.19,mr81dhy9r5lxu8r,0,Windows,Chrome,1133.9999998454005,_faces/AM04_D_U.jpg,NA,,,emotionRatingFaceWindow,NA,NA,NA,81,6,1,disgusted,73,AM04_D_U,AM04,A,M,D,U,0,,NA,,,,,,,NA,NA,NA,NA,NA,NA,NA,NA,NA,NA,NA,NA,NA,NA,NA,NA,NA,NA,NA,NA,NA,NA,NA,NA,NA,NA,NA,NA,NA,NA,NA,NA,NA,NA,NA,NA,NA,NA,NA,NA,NA,NA,NA,NA,NA,NA,NA,NA,NA,NA,NA,NA,NA,NA,NA,NA,NA,NA,NA,NA,NA,NA,NA,NA,NA,NA,NA,NA,NA,NA,NA,NA,NA,NA,NA,NA,NA,NA,NA,NA,NA,NA,NA,NA,NA,NA,NA,NA,NA,NA,NA,NA,,,NA
html-keyboard-response,165,281145,0.0-6.0-0.20,mr81dhy9r5lxu8r,0,Windows,Chrome,NA,+,NA,,,fixation,NA,NA,NA,NA,NA,NA,,NA,,,,,,,NA,,NA,,,,,,,NA,NA,NA,NA,NA,NA,NA,NA,NA,NA,NA,NA,NA,NA,NA,NA,NA,NA,NA,NA,NA,NA,NA,NA,NA,NA,NA,NA,NA,NA,NA,NA,NA,NA,NA,NA,NA,NA,NA,NA,NA,NA,NA,NA,NA,NA,NA,NA,NA,NA,NA,NA,NA,NA,NA,NA,NA,NA,NA,NA,NA,NA,NA,NA,NA,NA,NA,NA,NA,NA,NA,NA,NA,NA,NA,NA,NA,NA,NA,NA,NA,NA,NA,NA,NA,NA,NA,NA,NA,NA,NA,NA,,,NA
image-keyboard-response,166,282149,0.0-6.0-1.20,mr81dhy9r5lxu8r,0,Windows,Chrome,996.999999973923,_faces/AF06_S_X.jpg,NA,,,emotionRatingFaceWindow,NA,NA,NA,81,6,1,disgusted,74,AF06_S_X,AF06,A,F,S,X,0,,NA,,,,,,,NA,NA,NA,NA,NA,NA,NA,NA,NA,NA,NA,NA,NA,NA,NA,NA,NA,NA,NA,NA,NA,NA,NA,NA,NA,NA,NA,NA,NA,NA,NA,NA,NA,NA,NA,NA,NA,NA,NA,NA,NA,NA,NA,NA,NA,NA,NA,NA,NA,NA,NA,NA,NA,NA,NA,NA,NA,NA,NA,NA,NA,NA,NA,NA,NA,NA,NA,NA,NA,NA,NA,NA,NA,NA,NA,NA,NA,NA,NA,NA,NA,NA,NA,NA,NA,NA,NA,NA,NA,NA,NA,NA,,,NA
html-keyboard-response,167,283161,0.0-6.0-0.21,mr81dhy9r5lxu8r,0,Windows,Chrome,NA,+,NA,,,fixation,NA,NA,NA,NA,NA,NA,,NA,,,,,,,NA,,NA,,,,,,,NA,NA,NA,NA,NA,NA,NA,NA,NA,NA,NA,NA,NA,NA,NA,NA,NA,NA,NA,NA,NA,NA,NA,NA,NA,NA,NA,NA,NA,NA,NA,NA,NA,NA,NA,NA,NA,NA,NA,NA,NA,NA,NA,NA,NA,NA,NA,NA,NA,NA,NA,NA,NA,NA,NA,NA,NA,NA,NA,NA,NA,NA,NA,NA,NA,NA,NA,NA,NA,NA,NA,NA,NA,NA,NA,NA,NA,NA,NA,NA,NA,NA,NA,NA,NA,NA,NA,NA,NA,NA,NA,NA,,,NA
image-keyboard-response,168,284349,0.0-6.0-1.21,mr81dhy9r5lxu8r,0,Windows,Chrome,1185.0000000558794,_faces/AF09_A_L.jpg,NA,,,emotionRatingFaceWindow,NA,NA,NA,80,6,1,disgusted,75,AF09_A_L,AF09,A,F,A,L,1,,NA,,,,,,,NA,NA,NA,NA,NA,NA,NA,NA,NA,NA,NA,NA,NA,NA,NA,NA,NA,NA,NA,NA,NA,NA,NA,NA,NA,NA,NA,NA,NA,NA,NA,NA,NA,NA,NA,NA,NA,NA,NA,NA,NA,NA,NA,NA,NA,NA,NA,NA,NA,NA,NA,NA,NA,NA,NA,NA,NA,NA,NA,NA,NA,NA,NA,NA,NA,NA,NA,NA,NA,NA,NA,NA,NA,NA,NA,NA,NA,NA,NA,NA,NA,NA,NA,NA,NA,NA,NA,NA,NA,NA,NA,NA,,,NA
html-keyboard-response,169,285365,0.0-6.0-0.22,mr81dhy9r5lxu8r,0,Windows,Chrome,NA,+,NA,,,fixation,NA,NA,NA,NA,NA,NA,,NA,,,,,,,NA,,NA,,,,,,,NA,NA,NA,NA,NA,NA,NA,NA,NA,NA,NA,NA,NA,NA,NA,NA,NA,NA,NA,NA,NA,NA,NA,NA,NA,NA,NA,NA,NA,NA,NA,NA,NA,NA,NA,NA,NA,NA,NA,NA,NA,NA,NA,NA,NA,NA,NA,NA,NA,NA,NA,NA,NA,NA,NA,NA,NA,NA,NA,NA,NA,NA,NA,NA,NA,NA,NA,NA,NA,NA,NA,NA,NA,NA,NA,NA,NA,NA,NA,NA,NA,NA,NA,NA,NA,NA,NA,NA,NA,NA,NA,NA,,,NA
image-keyboard-response,170,286379,0.0-6.0-1.22,mr81dhy9r5lxu8r,0,Windows,Chrome,1011.9999998714775,_faces/HF05_H_X.jpg,NA,,,emotionRatingFaceWindow,NA,NA,NA,80,6,1,disgusted,76,HF05_H_X,HF05,H,F,H,X,1,,NA,,,,,,,NA,NA,NA,NA,NA,NA,NA,NA,NA,NA,NA,NA,NA,NA,NA,NA,NA,NA,NA,NA,NA,NA,NA,NA,NA,NA,NA,NA,NA,NA,NA,NA,NA,NA,NA,NA,NA,NA,NA,NA,NA,NA,NA,NA,NA,NA,NA,NA,NA,NA,NA,NA,NA,NA,NA,NA,NA,NA,NA,NA,NA,NA,NA,NA,NA,NA,NA,NA,NA,NA,NA,NA,NA,NA,NA,NA,NA,NA,NA,NA,NA,NA,NA,NA,NA,NA,NA,NA,NA,NA,NA,NA,,,NA
html-keyboard-response,171,287380,0.0-6.0-0.23,mr81dhy9r5lxu8r,0,Windows,Chrome,NA,+,NA,,,fixation,NA,NA,NA,NA,NA,NA,,NA,,,,,,,NA,,NA,,,,,,,NA,NA,NA,NA,NA,NA,NA,NA,NA,NA,NA,NA,NA,NA,NA,NA,NA,NA,NA,NA,NA,NA,NA,NA,NA,NA,NA,NA,NA,NA,NA,NA,NA,NA,NA,NA,NA,NA,NA,NA,NA,NA,NA,NA,NA,NA,NA,NA,NA,NA,NA,NA,NA,NA,NA,NA,NA,NA,NA,NA,NA,NA,NA,NA,NA,NA,NA,NA,NA,NA,NA,NA,NA,NA,NA,NA,NA,NA,NA,NA,NA,NA,NA,NA,NA,NA,NA,NA,NA,NA,NA,NA,,,NA
image-keyboard-response,172,288927,0.0-6.0-1.23,mr81dhy9r5lxu8r,0,Windows,Chrome,1543.999999994412,_faces/AF06_S_L.jpg,NA,,,emotionRatingFaceWindow,NA,NA,NA,80,6,1,disgusted,77,AF06_S_L,AF06,A,F,S,L,1,,NA,,,,,,,NA,NA,NA,NA,NA,NA,NA,NA,NA,NA,NA,NA,NA,NA,NA,NA,NA,NA,NA,NA,NA,NA,NA,NA,NA,NA,NA,NA,NA,NA,NA,NA,NA,NA,NA,NA,NA,NA,NA,NA,NA,NA,NA,NA,NA,NA,NA,NA,NA,NA,NA,NA,NA,NA,NA,NA,NA,NA,NA,NA,NA,NA,NA,NA,NA,NA,NA,NA,NA,NA,NA,NA,NA,NA,NA,NA,NA,NA,NA,NA,NA,NA,NA,NA,NA,NA,NA,NA,NA,NA,NA,NA,,,NA
html-keyboard-response,173,289942,0.0-6.0-0.24,mr81dhy9r5lxu8r,0,Windows,Chrome,NA,+,NA,,,fixation,NA,NA,NA,NA,NA,NA,,NA,,,,,,,NA,,NA,,,,,,,NA,NA,NA,NA,NA,NA,NA,NA,NA,NA,NA,NA,NA,NA,NA,NA,NA,NA,NA,NA,NA,NA,NA,NA,NA,NA,NA,NA,NA,NA,NA,NA,NA,NA,NA,NA,NA,NA,NA,NA,NA,NA,NA,NA,NA,NA,NA,NA,NA,NA,NA,NA,NA,NA,NA,NA,NA,NA,NA,NA,NA,NA,NA,NA,NA,NA,NA,NA,NA,NA,NA,NA,NA,NA,NA,NA,NA,NA,NA,NA,NA,NA,NA,NA,NA,NA,NA,NA,NA,NA,NA,NA,,,NA
image-keyboard-response,174,291071,0.0-6.0-1.24,mr81dhy9r5lxu8r,0,Windows,Chrome,1123.0000001378357,_faces/WM09_H_U.jpg,NA,,,emotionRatingFaceWindow,NA,NA,NA,80,6,1,disgusted,78,WM09_H_U,WM09,W,M,H,U,1,,NA,,,,,,,NA,NA,NA,NA,NA,NA,NA,NA,NA,NA,NA,NA,NA,NA,NA,NA,NA,NA,NA,NA,NA,NA,NA,NA,NA,NA,NA,NA,NA,NA,NA,NA,NA,NA,NA,NA,NA,NA,NA,NA,NA,NA,NA,NA,NA,NA,NA,NA,NA,NA,NA,NA,NA,NA,NA,NA,NA,NA,NA,NA,NA,NA,NA,NA,NA,NA,NA,NA,NA,NA,NA,NA,NA,NA,NA,NA,NA,NA,NA,NA,NA,NA,NA,NA,NA,NA,NA,NA,NA,NA,NA,NA,,,NA
html-keyboard-response,175,292083,0.0-6.0-0.25,mr81dhy9r5lxu8r,0,Windows,Chrome,NA,+,NA,,,fixation,NA,NA,NA,NA,NA,NA,,NA,,,,,,,NA,,NA,,,,,,,NA,NA,NA,NA,NA,NA,NA,NA,NA,NA,NA,NA,NA,NA,NA,NA,NA,NA,NA,NA,NA,NA,NA,NA,NA,NA,NA,NA,NA,NA,NA,NA,NA,NA,NA,NA,NA,NA,NA,NA,NA,NA,NA,NA,NA,NA,NA,NA,NA,NA,NA,NA,NA,NA,NA,NA,NA,NA,NA,NA,NA,NA,NA,NA,NA,NA,NA,NA,NA,NA,NA,NA,NA,NA,NA,NA,NA,NA,NA,NA,NA,NA,NA,NA,NA,NA,NA,NA,NA,NA,NA,NA,,,NA
image-keyboard-response,176,292912,0.0-6.0-1.25,mr81dhy9r5lxu8r,0,Windows,Chrome,827.0000000484288,_faces/AM07_F_L.jpg,NA,,,emotionRatingFaceWindow,NA,NA,NA,80,6,1,disgusted,79,AM07_F_L,AM07,A,M,F,L,1,,NA,,,,,,,NA,NA,NA,NA,NA,NA,NA,NA,NA,NA,NA,NA,NA,NA,NA,NA,NA,NA,NA,NA,NA,NA,NA,NA,NA,NA,NA,NA,NA,NA,NA,NA,NA,NA,NA,NA,NA,NA,NA,NA,NA,NA,NA,NA,NA,NA,NA,NA,NA,NA,NA,NA,NA,NA,NA,NA,NA,NA,NA,NA,NA,NA,NA,NA,NA,NA,NA,NA,NA,NA,NA,NA,NA,NA,NA,NA,NA,NA,NA,NA,NA,NA,NA,NA,NA,NA,NA,NA,NA,NA,NA,NA,,,NA
html-keyboard-response,177,293913,0.0-6.0-0.26,mr81dhy9r5lxu8r,0,Windows,Chrome,NA,+,NA,,,fixation,NA,NA,NA,NA,NA,NA,,NA,,,,,,,NA,,NA,,,,,,,NA,NA,NA,NA,NA,NA,NA,NA,NA,NA,NA,NA,NA,NA,NA,NA,NA,NA,NA,NA,NA,NA,NA,NA,NA,NA,NA,NA,NA,NA,NA,NA,NA,NA,NA,NA,NA,NA,NA,NA,NA,NA,NA,NA,NA,NA,NA,NA,NA,NA,NA,NA,NA,NA,NA,NA,NA,NA,NA,NA,NA,NA,NA,NA,NA,NA,NA,NA,NA,NA,NA,NA,NA,NA,NA,NA,NA,NA,NA,NA,NA,NA,NA,NA,NA,NA,NA,NA,NA,NA,NA,NA,,,NA
image-keyboard-response,178,294869,0.0-6.0-1.26,mr81dhy9r5lxu8r,0,Windows,Chrome,946.9999999273568,_faces/WF05_F_L.jpg,NA,,,emotionRatingFaceWindow,NA,NA,NA,80,6,1,disgusted,80,WF05_F_L,WF05,W,F,F,L,1,,NA,,,,,,,NA,NA,NA,NA,NA,NA,NA,NA,NA,NA,NA,NA,NA,NA,NA,NA,NA,NA,NA,NA,NA,NA,NA,NA,NA,NA,NA,NA,NA,NA,NA,NA,NA,NA,NA,NA,NA,NA,NA,NA,NA,NA,NA,NA,NA,NA,NA,NA,NA,NA,NA,NA,NA,NA,NA,NA,NA,NA,NA,NA,NA,NA,NA,NA,NA,NA,NA,NA,NA,NA,NA,NA,NA,NA,NA,NA,NA,NA,NA,NA,NA,NA,NA,NA,NA,NA,NA,NA,NA,NA,NA,NA,,,NA
html-keyboard-response,179,295878,0.0-6.0-0.27,mr81dhy9r5lxu8r,0,Windows,Chrome,NA,+,NA,,,fixation,NA,NA,NA,NA,NA,NA,,NA,,,,,,,NA,,NA,,,,,,,NA,NA,NA,NA,NA,NA,NA,NA,NA,NA,NA,NA,NA,NA,NA,NA,NA,NA,NA,NA,NA,NA,NA,NA,NA,NA,NA,NA,NA,NA,NA,NA,NA,NA,NA,NA,NA,NA,NA,NA,NA,NA,NA,NA,NA,NA,NA,NA,NA,NA,NA,NA,NA,NA,NA,NA,NA,NA,NA,NA,NA,NA,NA,NA,NA,NA,NA,NA,NA,NA,NA,NA,NA,NA,NA,NA,NA,NA,NA,NA,NA,NA,NA,NA,NA,NA,NA,NA,NA,NA,NA,NA,,,NA
image-keyboard-response,180,296893,0.0-6.0-1.27,mr81dhy9r5lxu8r,0,Windows,Chrome,1012.9999998025596,_faces/WF05_F_X.jpg,NA,,,emotionRatingFaceWindow,NA,NA,NA,80,6,1,disgusted,81,WF05_F_X,WF05,W,F,F,X,1,,NA,,,,,,,NA,NA,NA,NA,NA,NA,NA,NA,NA,NA,NA,NA,NA,NA,NA,NA,NA,NA,NA,NA,NA,NA,NA,NA,NA,NA,NA,NA,NA,NA,NA,NA,NA,NA,NA,NA,NA,NA,NA,NA,NA,NA,NA,NA,NA,NA,NA,NA,NA,NA,NA,NA,NA,NA,NA,NA,NA,NA,NA,NA,NA,NA,NA,NA,NA,NA,NA,NA,NA,NA,NA,NA,NA,NA,NA,NA,NA,NA,NA,NA,NA,NA,NA,NA,NA,NA,NA,NA,NA,NA,NA,NA,,,NA
html-keyboard-response,181,297909,0.0-6.0-0.28,mr81dhy9r5lxu8r,0,Windows,Chrome,NA,+,NA,,,fixation,NA,NA,NA,NA,NA,NA,,NA,,,,,,,NA,,NA,,,,,,,NA,NA,NA,NA,NA,NA,NA,NA,NA,NA,NA,NA,NA,NA,NA,NA,NA,NA,NA,NA,NA,NA,NA,NA,NA,NA,NA,NA,NA,NA,NA,NA,NA,NA,NA,NA,NA,NA,NA,NA,NA,NA,NA,NA,NA,NA,NA,NA,NA,NA,NA,NA,NA,NA,NA,NA,NA,NA,NA,NA,NA,NA,NA,NA,NA,NA,NA,NA,NA,NA,NA,NA,NA,NA,NA,NA,NA,NA,NA,NA,NA,NA,NA,NA,NA,NA,NA,NA,NA,NA,NA,NA,,,NA
image-keyboard-response,182,298978,0.0-6.0-1.28,mr81dhy9r5lxu8r,0,Windows,Chrome,1066.0000001080334,_faces/AM11_H_X.jpg,NA,,,emotionRatingFaceWindow,NA,NA,NA,80,6,1,disgusted,82,AM11_H_X,AM11,A,M,H,X,1,,NA,,,,,,,NA,NA,NA,NA,NA,NA,NA,NA,NA,NA,NA,NA,NA,NA,NA,NA,NA,NA,NA,NA,NA,NA,NA,NA,NA,NA,NA,NA,NA,NA,NA,NA,NA,NA,NA,NA,NA,NA,NA,NA,NA,NA,NA,NA,NA,NA,NA,NA,NA,NA,NA,NA,NA,NA,NA,NA,NA,NA,NA,NA,NA,NA,NA,NA,NA,NA,NA,NA,NA,NA,NA,NA,NA,NA,NA,NA,NA,NA,NA,NA,NA,NA,NA,NA,NA,NA,NA,NA,NA,NA,NA,NA,,,NA
html-keyboard-response,183,299980,0.0-6.0-0.29,mr81dhy9r5lxu8r,0,Windows,Chrome,NA,+,NA,,,fixation,NA,NA,NA,NA,NA,NA,,NA,,,,,,,NA,,NA,,,,,,,NA,NA,NA,NA,NA,NA,NA,NA,NA,NA,NA,NA,NA,NA,NA,NA,NA,NA,NA,NA,NA,NA,NA,NA,NA,NA,NA,NA,NA,NA,NA,NA,NA,NA,NA,NA,NA,NA,NA,NA,NA,NA,NA,NA,NA,NA,NA,NA,NA,NA,NA,NA,NA,NA,NA,NA,NA,NA,NA,NA,NA,NA,NA,NA,NA,NA,NA,NA,NA,NA,NA,NA,NA,NA,NA,NA,NA,NA,NA,NA,NA,NA,NA,NA,NA,NA,NA,NA,NA,NA,NA,NA,,,NA
image-keyboard-response,184,301063,0.0-6.0-1.29,mr81dhy9r5lxu8r,0,Windows,Chrome,1067.9999999701977,_faces/WF02_D_U.jpg,NA,,,emotionRatingFaceWindow,NA,NA,NA,80,6,1,disgusted,83,WF02_D_U,WF02,W,F,D,U,1,,NA,,,,,,,NA,NA,NA,NA,NA,NA,NA,NA,NA,NA,NA,NA,NA,NA,NA,NA,NA,NA,NA,NA,NA,NA,NA,NA,NA,NA,NA,NA,NA,NA,NA,NA,NA,NA,NA,NA,NA,NA,NA,NA,NA,NA,NA,NA,NA,NA,NA,NA,NA,NA,NA,NA,NA,NA,NA,NA,NA,NA,NA,NA,NA,NA,NA,NA,NA,NA,NA,NA,NA,NA,NA,NA,NA,NA,NA,NA,NA,NA,NA,NA,NA,NA,NA,NA,NA,NA,NA,NA,NA,NA,NA,NA,,,NA
html-keyboard-response,185,302065,0.0-6.0-0.30,mr81dhy9r5lxu8r,0,Windows,Chrome,NA,+,NA,,,fixation,NA,NA,NA,NA,NA,NA,,NA,,,,,,,NA,,NA,,,,,,,NA,NA,NA,NA,NA,NA,NA,NA,NA,NA,NA,NA,NA,NA,NA,NA,NA,NA,NA,NA,NA,NA,NA,NA,NA,NA,NA,NA,NA,NA,NA,NA,NA,NA,NA,NA,NA,NA,NA,NA,NA,NA,NA,NA,NA,NA,NA,NA,NA,NA,NA,NA,NA,NA,NA,NA,NA,NA,NA,NA,NA,NA,NA,NA,NA,NA,NA,NA,NA,NA,NA,NA,NA,NA,NA,NA,NA,NA,NA,NA,NA,NA,NA,NA,NA,NA,NA,NA,NA,NA,NA,NA,,,NA
image-keyboard-response,186,303329,0.0-6.0-1.30,mr81dhy9r5lxu8r,0,Windows,Chrome,1262.9999998025596,_faces/AM07_F_U.jpg,NA,,,emotionRatingFaceWindow,NA,NA,NA,81,6,1,disgusted,84,AM07_F_U,AM07,A,M,F,U,0,,NA,,,,,,,NA,NA,NA,NA,NA,NA,NA,NA,NA,NA,NA,NA,NA,NA,NA,NA,NA,NA,NA,NA,NA,NA,NA,NA,NA,NA,NA,NA,NA,NA,NA,NA,NA,NA,NA,NA,NA,NA,NA,NA,NA,NA,NA,NA,NA,NA,NA,NA,NA,NA,NA,NA,NA,NA,NA,NA,NA,NA,NA,NA,NA,NA,NA,NA,NA,NA,NA,NA,NA,NA,NA,NA,NA,NA,NA,NA,NA,NA,NA,NA,NA,NA,NA,NA,NA,NA,NA,NA,NA,NA,NA,NA,,,NA
html-keyboard-response,187,304331,0.0-6.0-0.31,mr81dhy9r5lxu8r,0,Windows,Chrome,NA,+,NA,,,fixation,NA,NA,NA,NA,NA,NA,,NA,,,,,,,NA,,NA,,,,,,,NA,NA,NA,NA,NA,NA,NA,NA,NA,NA,NA,NA,NA,NA,NA,NA,NA,NA,NA,NA,NA,NA,NA,NA,NA,NA,NA,NA,NA,NA,NA,NA,NA,NA,NA,NA,NA,NA,NA,NA,NA,NA,NA,NA,NA,NA,NA,NA,NA,NA,NA,NA,NA,NA,NA,NA,NA,NA,NA,NA,NA,NA,NA,NA,NA,NA,NA,NA,NA,NA,NA,NA,NA,NA,NA,NA,NA,NA,NA,NA,NA,NA,NA,NA,NA,NA,NA,NA,NA,NA,NA,NA,,,NA
image-keyboard-response,188,305520,0.0-6.0-1.31,mr81dhy9r5lxu8r,0,Windows,Chrome,1183.9999998919666,_faces/HM08_S_L.jpg,NA,,,emotionRatingFaceWindow,NA,NA,NA,81,6,1,disgusted,85,HM08_S_L,HM08,H,M,S,L,0,,NA,,,,,,,NA,NA,NA,NA,NA,NA,NA,NA,NA,NA,NA,NA,NA,NA,NA,NA,NA,NA,NA,NA,NA,NA,NA,NA,NA,NA,NA,NA,NA,NA,NA,NA,NA,NA,NA,NA,NA,NA,NA,NA,NA,NA,NA,NA,NA,NA,NA,NA,NA,NA,NA,NA,NA,NA,NA,NA,NA,NA,NA,NA,NA,NA,NA,NA,NA,NA,NA,NA,NA,NA,NA,NA,NA,NA,NA,NA,NA,NA,NA,NA,NA,NA,NA,NA,NA,NA,NA,NA,NA,NA,NA,NA,,,NA
html-keyboard-response,189,306522,0.0-6.0-0.32,mr81dhy9r5lxu8r,0,Windows,Chrome,NA,+,NA,,,fixation,NA,NA,NA,NA,NA,NA,,NA,,,,,,,NA,,NA,,,,,,,NA,NA,NA,NA,NA,NA,NA,NA,NA,NA,NA,NA,NA,NA,NA,NA,NA,NA,NA,NA,NA,NA,NA,NA,NA,NA,NA,NA,NA,NA,NA,NA,NA,NA,NA,NA,NA,NA,NA,NA,NA,NA,NA,NA,NA,NA,NA,NA,NA,NA,NA,NA,NA,NA,NA,NA,NA,NA,NA,NA,NA,NA,NA,NA,NA,NA,NA,NA,NA,NA,NA,NA,NA,NA,NA,NA,NA,NA,NA,NA,NA,NA,NA,NA,NA,NA,NA,NA,NA,NA,NA,NA,,,NA
image-keyboard-response,190,307401,0.0-6.0-1.32,mr81dhy9r5lxu8r,0,Windows,Chrome,874.0000000689179,_faces/AF06_S_U.jpg,NA,,,emotionRatingFaceWindow,NA,NA,NA,81,6,1,disgusted,86,AF06_S_U,AF06,A,F,S,U,0,,NA,,,,,,,NA,NA,NA,NA,NA,NA,NA,NA,NA,NA,NA,NA,NA,NA,NA,NA,NA,NA,NA,NA,NA,NA,NA,NA,NA,NA,NA,NA,NA,NA,NA,NA,NA,NA,NA,NA,NA,NA,NA,NA,NA,NA,NA,NA,NA,NA,NA,NA,NA,NA,NA,NA,NA,NA,NA,NA,NA,NA,NA,NA,NA,NA,NA,NA,NA,NA,NA,NA,NA,NA,NA,NA,NA,NA,NA,NA,NA,NA,NA,NA,NA,NA,NA,NA,NA,NA,NA,NA,NA,NA,NA,NA,,,NA
html-keyboard-response,191,308404,0.0-6.0-0.33,mr81dhy9r5lxu8r,0,Windows,Chrome,NA,+,NA,,,fixation,NA,NA,NA,NA,NA,NA,,NA,,,,,,,NA,,NA,,,,,,,NA,NA,NA,NA,NA,NA,NA,NA,NA,NA,NA,NA,NA,NA,NA,NA,NA,NA,NA,NA,NA,NA,NA,NA,NA,NA,NA,NA,NA,NA,NA,NA,NA,NA,NA,NA,NA,NA,NA,NA,NA,NA,NA,NA,NA,NA,NA,NA,NA,NA,NA,NA,NA,NA,NA,NA,NA,NA,NA,NA,NA,NA,NA,NA,NA,NA,NA,NA,NA,NA,NA,NA,NA,NA,NA,NA,NA,NA,NA,NA,NA,NA,NA,NA,NA,NA,NA,NA,NA,NA,NA,NA,,,NA
image-keyboard-response,192,309328,0.0-6.0-1.33,mr81dhy9r5lxu8r,0,Windows,Chrome,915.0000000372529,_faces/AM11_H_L.jpg,NA,,,emotionRatingFaceWindow,NA,NA,NA,80,6,1,disgusted,87,AM11_H_L,AM11,A,M,H,L,1,,NA,,,,,,,NA,NA,NA,NA,NA,NA,NA,NA,NA,NA,NA,NA,NA,NA,NA,NA,NA,NA,NA,NA,NA,NA,NA,NA,NA,NA,NA,NA,NA,NA,NA,NA,NA,NA,NA,NA,NA,NA,NA,NA,NA,NA,NA,NA,NA,NA,NA,NA,NA,NA,NA,NA,NA,NA,NA,NA,NA,NA,NA,NA,NA,NA,NA,NA,NA,NA,NA,NA,NA,NA,NA,NA,NA,NA,NA,NA,NA,NA,NA,NA,NA,NA,NA,NA,NA,NA,NA,NA,NA,NA,NA,NA,,,NA
html-keyboard-response,193,310331,0.0-6.0-0.34,mr81dhy9r5lxu8r,0,Windows,Chrome,NA,+,NA,,,fixation,NA,NA,NA,NA,NA,NA,,NA,,,,,,,NA,,NA,,,,,,,NA,NA,NA,NA,NA,NA,NA,NA,NA,NA,NA,NA,NA,NA,NA,NA,NA,NA,NA,NA,NA,NA,NA,NA,NA,NA,NA,NA,NA,NA,NA,NA,NA,NA,NA,NA,NA,NA,NA,NA,NA,NA,NA,NA,NA,NA,NA,NA,NA,NA,NA,NA,NA,NA,NA,NA,NA,NA,NA,NA,NA,NA,NA,NA,NA,NA,NA,NA,NA,NA,NA,NA,NA,NA,NA,NA,NA,NA,NA,NA,NA,NA,NA,NA,NA,NA,NA,NA,NA,NA,NA,NA,,,NA
image-keyboard-response,194,311264,0.0-6.0-1.34,mr81dhy9r5lxu8r,0,Windows,Chrome,919.9999999254942,_faces/WF05_F_U.jpg,NA,,,emotionRatingFaceWindow,NA,NA,NA,80,6,1,disgusted,88,WF05_F_U,WF05,W,F,F,U,1,,NA,,,,,,,NA,NA,NA,NA,NA,NA,NA,NA,NA,NA,NA,NA,NA,NA,NA,NA,NA,NA,NA,NA,NA,NA,NA,NA,NA,NA,NA,NA,NA,NA,NA,NA,NA,NA,NA,NA,NA,NA,NA,NA,NA,NA,NA,NA,NA,NA,NA,NA,NA,NA,NA,NA,NA,NA,NA,NA,NA,NA,NA,NA,NA,NA,NA,NA,NA,NA,NA,NA,NA,NA,NA,NA,NA,NA,NA,NA,NA,NA,NA,NA,NA,NA,NA,NA,NA,NA,NA,NA,NA,NA,NA,NA,,,NA
html-keyboard-response,195,312267,0.0-6.0-0.35,mr81dhy9r5lxu8r,0,Windows,Chrome,NA,+,NA,,,fixation,NA,NA,NA,NA,NA,NA,,NA,,,,,,,NA,,NA,,,,,,,NA,NA,NA,NA,NA,NA,NA,NA,NA,NA,NA,NA,NA,NA,NA,NA,NA,NA,NA,NA,NA,NA,NA,NA,NA,NA,NA,NA,NA,NA,NA,NA,NA,NA,NA,NA,NA,NA,NA,NA,NA,NA,NA,NA,NA,NA,NA,NA,NA,NA,NA,NA,NA,NA,NA,NA,NA,NA,NA,NA,NA,NA,NA,NA,NA,NA,NA,NA,NA,NA,NA,NA,NA,NA,NA,NA,NA,NA,NA,NA,NA,NA,NA,NA,NA,NA,NA,NA,NA,NA,NA,NA,,,NA
image-keyboard-response,196,313219,0.0-6.0-1.35,mr81dhy9r5lxu8r,0,Windows,Chrome,935.9999999869615,_faces/BM17_D_U.jpg,NA,,,emotionRatingFaceWindow,NA,NA,NA,80,6,1,disgusted,89,BM17_D_U,BM17,B,M,D,U,1,,NA,,,,,,,NA,NA,NA,NA,NA,NA,NA,NA,NA,NA,NA,NA,NA,NA,NA,NA,NA,NA,NA,NA,NA,NA,NA,NA,NA,NA,NA,NA,NA,NA,NA,NA,NA,NA,NA,NA,NA,NA,NA,NA,NA,NA,NA,NA,NA,NA,NA,NA,NA,NA,NA,NA,NA,NA,NA,NA,NA,NA,NA,NA,NA,NA,NA,NA,NA,NA,NA,NA,NA,NA,NA,NA,NA,NA,NA,NA,NA,NA,NA,NA,NA,NA,NA,NA,NA,NA,NA,NA,NA,NA,NA,NA,,,NA
html-keyboard-response,197,314222,0.0-6.0-0.36,mr81dhy9r5lxu8r,0,Windows,Chrome,NA,+,NA,,,fixation,NA,NA,NA,NA,NA,NA,,NA,,,,,,,NA,,NA,,,,,,,NA,NA,NA,NA,NA,NA,NA,NA,NA,NA,NA,NA,NA,NA,NA,NA,NA,NA,NA,NA,NA,NA,NA,NA,NA,NA,NA,NA,NA,NA,NA,NA,NA,NA,NA,NA,NA,NA,NA,NA,NA,NA,NA,NA,NA,NA,NA,NA,NA,NA,NA,NA,NA,NA,NA,NA,NA,NA,NA,NA,NA,NA,NA,NA,NA,NA,NA,NA,NA,NA,NA,NA,NA,NA,NA,NA,NA,NA,NA,NA,NA,NA,NA,NA,NA,NA,NA,NA,NA,NA,NA,NA,,,NA
image-keyboard-response,198,315920,0.0-6.0-1.36,mr81dhy9r5lxu8r,0,Windows,Chrome,1694.999999832362,_faces/HM09_A_U.jpg,NA,,,emotionRatingFaceWindow,NA,NA,NA,80,6,1,disgusted,90,HM09_A_U,HM09,H,M,A,U,1,,NA,,,,,,,NA,NA,NA,NA,NA,NA,NA,NA,NA,NA,NA,NA,NA,NA,NA,NA,NA,NA,NA,NA,NA,NA,NA,NA,NA,NA,NA,NA,NA,NA,NA,NA,NA,NA,NA,NA,NA,NA,NA,NA,NA,NA,NA,NA,NA,NA,NA,NA,NA,NA,NA,NA,NA,NA,NA,NA,NA,NA,NA,NA,NA,NA,NA,NA,NA,NA,NA,NA,NA,NA,NA,NA,NA,NA,NA,NA,NA,NA,NA,NA,NA,NA,NA,NA,NA,NA,NA,NA,NA,NA,NA,NA,,,NA
html-keyboard-response,199,316925,0.0-6.0-0.37,mr81dhy9r5lxu8r,0,Windows,Chrome,NA,+,NA,,,fixation,NA,NA,NA,NA,NA,NA,,NA,,,,,,,NA,,NA,,,,,,,NA,NA,NA,NA,NA,NA,NA,NA,NA,NA,NA,NA,NA,NA,NA,NA,NA,NA,NA,NA,NA,NA,NA,NA,NA,NA,NA,NA,NA,NA,NA,NA,NA,NA,NA,NA,NA,NA,NA,NA,NA,NA,NA,NA,NA,NA,NA,NA,NA,NA,NA,NA,NA,NA,NA,NA,NA,NA,NA,NA,NA,NA,NA,NA,NA,NA,NA,NA,NA,NA,NA,NA,NA,NA,NA,NA,NA,NA,NA,NA,NA,NA,NA,NA,NA,NA,NA,NA,NA,NA,NA,NA,,,NA
image-keyboard-response,200,317918,0.0-6.0-1.37,mr81dhy9r5lxu8r,0,Windows,Chrome,992.0000000856817,_faces/HF04_F_X.jpg,NA,,,emotionRatingFaceWindow,NA,NA,NA,80,6,1,disgusted,91,HF04_F_X,HF04,H,F,F,X,1,,NA,,,,,,,NA,NA,NA,NA,NA,NA,NA,NA,NA,NA,NA,NA,NA,NA,NA,NA,NA,NA,NA,NA,NA,NA,NA,NA,NA,NA,NA,NA,NA,NA,NA,NA,NA,NA,NA,NA,NA,NA,NA,NA,NA,NA,NA,NA,NA,NA,NA,NA,NA,NA,NA,NA,NA,NA,NA,NA,NA,NA,NA,NA,NA,NA,NA,NA,NA,NA,NA,NA,NA,NA,NA,NA,NA,NA,NA,NA,NA,NA,NA,NA,NA,NA,NA,NA,NA,NA,NA,NA,NA,NA,NA,NA,,,NA
html-keyboard-response,201,318921,0.0-6.0-0.38,mr81dhy9r5lxu8r,0,Windows,Chrome,NA,+,NA,,,fixation,NA,NA,NA,NA,NA,NA,,NA,,,,,,,NA,,NA,,,,,,,NA,NA,NA,NA,NA,NA,NA,NA,NA,NA,NA,NA,NA,NA,NA,NA,NA,NA,NA,NA,NA,NA,NA,NA,NA,NA,NA,NA,NA,NA,NA,NA,NA,NA,NA,NA,NA,NA,NA,NA,NA,NA,NA,NA,NA,NA,NA,NA,NA,NA,NA,NA,NA,NA,NA,NA,NA,NA,NA,NA,NA,NA,NA,NA,NA,NA,NA,NA,NA,NA,NA,NA,NA,NA,NA,NA,NA,NA,NA,NA,NA,NA,NA,NA,NA,NA,NA,NA,NA,NA,NA,NA,,,NA
image-keyboard-response,202,319978,0.0-6.0-1.38,mr81dhy9r5lxu8r,0,Windows,Chrome,1056.0000000987202,_faces/HM09_A_X.jpg,NA,,,emotionRatingFaceWindow,NA,NA,NA,80,6,1,disgusted,92,HM09_A_X,HM09,H,M,A,X,1,,NA,,,,,,,NA,NA,NA,NA,NA,NA,NA,NA,NA,NA,NA,NA,NA,NA,NA,NA,NA,NA,NA,NA,NA,NA,NA,NA,NA,NA,NA,NA,NA,NA,NA,NA,NA,NA,NA,NA,NA,NA,NA,NA,NA,NA,NA,NA,NA,NA,NA,NA,NA,NA,NA,NA,NA,NA,NA,NA,NA,NA,NA,NA,NA,NA,NA,NA,NA,NA,NA,NA,NA,NA,NA,NA,NA,NA,NA,NA,NA,NA,NA,NA,NA,NA,NA,NA,NA,NA,NA,NA,NA,NA,NA,NA,,,NA
html-keyboard-response,203,320980,0.0-6.0-0.39,mr81dhy9r5lxu8r,0,Windows,Chrome,NA,+,NA,,,fixation,NA,NA,NA,NA,NA,NA,,NA,,,,,,,NA,,NA,,,,,,,NA,NA,NA,NA,NA,NA,NA,NA,NA,NA,NA,NA,NA,NA,NA,NA,NA,NA,NA,NA,NA,NA,NA,NA,NA,NA,NA,NA,NA,NA,NA,NA,NA,NA,NA,NA,NA,NA,NA,NA,NA,NA,NA,NA,NA,NA,NA,NA,NA,NA,NA,NA,NA,NA,NA,NA,NA,NA,NA,NA,NA,NA,NA,NA,NA,NA,NA,NA,NA,NA,NA,NA,NA,NA,NA,NA,NA,NA,NA,NA,NA,NA,NA,NA,NA,NA,NA,NA,NA,NA,NA,NA,,,NA
