trial_type,trial_index,time_elapsed,internal_node_id,subject,keyPair,subjectOS,subjectBrowser,rt,stimulus,button_pressed,responses,question_order,whichWindow,checkRatingAccuracy,checkKeyYesAccuracy,checkKeyNoAccuracy,key_press,faceList,block,emotionRating,trial,face,model,ethnicity,sex,expression,mask,rateEmotion,personRating,ratePerson,whichQ,ipsos1,ipsos2_0,ipsos3_0,ipsos4,ipsos5_0,IRQ1,IRQ2,IRQ3,IRQ4,IRQ5,IRQ6,IRQ7,IRQ8,IRQ9,IRQ10,IRQ11,IRQ12,IRQ13,IRQ14,IRQ15,IRQ16,attentionCheck,AQC1,AQC2,AQC3,AQC4,AQC5,AQC6,AQC7,AQC8,AQC9,AQC10,INDCOL1,INDCOL2,INDCOL3,INDCOL4,INDCOL5,INDCOL6,INDCOL7,INDCOL8,INDCOL9,INDCOL10,INDCOL11,INDCOL12,INDCOL13,INDCOL14,BFI1,BFI2,BFI3,BFI4,BFI5,BFI6,BFI7,BFI8,BFI9,BFI10,BFI11,BFI12,BFI13,BFI14,BFI15,BFI16,BFI17,BFI18,BFI19,BFI20,BFI21,BFI22,BFI23,BFI24,BFI25,BFI26,BFI27,BFI28,BFI29,BFI30,BFI31,BFI32,BFI33,BFI34,BFI35,BFI36,BFI37,BFI38,BFI39,BFI40,BFI41,BFI42,BFI43,BFI44,BEQS1,BEQS2,BEQS3,BEQS4,BEQS5,BEQS6,age,gender,ethnicity0,ethnicity1,politicalIdeology
pavlovia,0,113,0.0-0.0,mdcs9lhvqatu1fr,0,Windows,Chrome,NA,,NA,,,,NA,NA,NA,NA,NA,NA,,NA,,,,,,,NA,,NA,,,,,,,NA,NA,NA,NA,NA,NA,NA,NA,NA,NA,NA,NA,NA,NA,NA,NA,NA,NA,NA,NA,NA,NA,NA,NA,NA,NA,NA,NA,NA,NA,NA,NA,NA,NA,NA,NA,NA,NA,NA,NA,NA,NA,NA,NA,NA,NA,NA,NA,NA,NA,NA,NA,NA,NA,NA,NA,NA,NA,NA,NA,NA,NA,NA,NA,NA,NA,NA,NA,NA,NA,NA,NA,NA,NA,NA,NA,NA,NA,NA,NA,NA,NA,NA,NA,NA,NA,NA,NA,NA,NA,NA,NA,,,,NA
html-button-response,1,20783,0.0-1.0-0.0,mdcs9lhvqatu1fr,0,Windows,Chrome,20668.795000063255,<p>Welcome to the experiment! Please click continue to begin.</p>,0,,,,NA,NA,NA,NA,NA,NA,,NA,,,,,,,NA,,NA,,,,,,,NA,NA,NA,NA,NA,NA,NA,NA,NA,NA,NA,NA,NA,NA,NA,NA,NA,NA,NA,NA,NA,NA,NA,NA,NA,NA,NA,NA,NA,NA,NA,NA,NA,NA,NA,NA,NA,NA,NA,NA,NA,NA,NA,NA,NA,NA,NA,NA,NA,NA,NA,NA,NA,NA,NA,NA,NA,NA,NA,NA,NA,NA,NA,NA,NA,NA,NA,NA,NA,NA,NA,NA,NA,NA,NA,NA,NA,NA,NA,NA,NA,NA,NA,NA,NA,NA,NA,NA,NA,NA,NA,NA,,,,NA
html-button-response,2,26117,0.0-1.0-1.0,mdcs9lhvqatu1fr,0,Windows,Chrome,4829.344999976456,"<p>On the next screen, you will see a generic consent form approved by Temple University Institutional Review Board. Your consent to that form is required to participate.</p> <p>Please note that the study will actually only last 30 minutes. Please also disregard any references to students.</p>",0,,,,NA,NA,NA,NA,NA,NA,,NA,,,,,,,NA,,NA,,,,,,,NA,NA,NA,NA,NA,NA,NA,NA,NA,NA,NA,NA,NA,NA,NA,NA,NA,NA,NA,NA,NA,NA,NA,NA,NA,NA,NA,NA,NA,NA,NA,NA,NA,NA,NA,NA,NA,NA,NA,NA,NA,NA,NA,NA,NA,NA,NA,NA,NA,NA,NA,NA,NA,NA,NA,NA,NA,NA,NA,NA,NA,NA,NA,NA,NA,NA,NA,NA,NA,NA,NA,NA,NA,NA,NA,NA,NA,NA,NA,NA,NA,NA,NA,NA,NA,NA,NA,NA,NA,NA,NA,NA,,,,NA
html-button-response,3,27945,0.0-1.0-2.0,mdcs9lhvqatu1fr,0,Windows,Chrome,1325.7150000426918,"<p><b><u>ONLINE CONSENT FORM (PAGE 1 OF 3)</u></b><p><p><b>Why you are being invited to take part in a research study?</b></p><p>We invite you to partake in this research study to understand how attitudes shape decisions related to attractiveness.</p><p><b>Who can I talk to?</b></p><p>If you have questions, concerns, or complaints, or think the research has hurt you, contact the research team at vinod.venkatraman@temple.edu or call 215-204-8177. Our physical address is Alter Hall A562, 1801 Liacouras Walk, Philadelphia, PA 19122.</p><p>This research has been reviewed and approved by an Institutional Review Board. You may talk to them at (215) 707-3390 or e-mail them at: irb@temple.edu for any of the following:</p><p><ul style='list-style-type:none'><li>Your questions, concerns, or complaints are not being answered by the research team.</li><li>You cannot reach the research team.</li><li>You want to talk to someone besides the research team.</li><li>You have questions about your rights as a research subject.</li><li>You want to get information or provide input about this research.</li></ul><p>",0,,,,NA,NA,NA,NA,NA,NA,,NA,,,,,,,NA,,NA,,,,,,,NA,NA,NA,NA,NA,NA,NA,NA,NA,NA,NA,NA,NA,NA,NA,NA,NA,NA,NA,NA,NA,NA,NA,NA,NA,NA,NA,NA,NA,NA,NA,NA,NA,NA,NA,NA,NA,NA,NA,NA,NA,NA,NA,NA,NA,NA,NA,NA,NA,NA,NA,NA,NA,NA,NA,NA,NA,NA,NA,NA,NA,NA,NA,NA,NA,NA,NA,NA,NA,NA,NA,NA,NA,NA,NA,NA,NA,NA,NA,NA,NA,NA,NA,NA,NA,NA,NA,NA,NA,NA,NA,NA,,,,NA
html-button-response,4,29798,0.0-1.0-3.0,mdcs9lhvqatu1fr,0,Windows,Chrome,1351.215000031516,"<p><b><u>ONLINE CONSENT FORM (PAGE 2 OF 3)</u></b><p><p><b>Why are we doing this research?</b></p><p>The purpose of the research is to better understand how different attitudes shape people's behavior and decision preferences.</p><p><b>How long will the research last?</b></p><p>Your participation in this study will last for one session with the duration of no longer than 1 hour.</p><p><b>What happens if I say yes, I want to be in this research?</b></p><p>After your consent to participate, you will be asked to indicate your preferences in a series of trials. The specific details and instructions for the task will be communicated by the experimenter prior to the start of the study. Please follow these instructions to the best of your ability. There will be attention checks throughout the study to ensure that you are paying attention and the data collected is valid.</p><p>We will also collect basic demographics from you such as income, education, purchasing behavior, political and altruistic attitudes, and decision-making behavior (such as sensitivity to risk). Remember that all the decisions and choices that you make during this study are your own opinions and preferences. There are no right or wrong answers. Please answer honestly and to the best of your abilities. Participating in this study is no more risky than using an everyday computer.</p>",0,,,,NA,NA,NA,NA,NA,NA,,NA,,,,,,,NA,,NA,,,,,,,NA,NA,NA,NA,NA,NA,NA,NA,NA,NA,NA,NA,NA,NA,NA,NA,NA,NA,NA,NA,NA,NA,NA,NA,NA,NA,NA,NA,NA,NA,NA,NA,NA,NA,NA,NA,NA,NA,NA,NA,NA,NA,NA,NA,NA,NA,NA,NA,NA,NA,NA,NA,NA,NA,NA,NA,NA,NA,NA,NA,NA,NA,NA,NA,NA,NA,NA,NA,NA,NA,NA,NA,NA,NA,NA,NA,NA,NA,NA,NA,NA,NA,NA,NA,NA,NA,NA,NA,NA,NA,NA,NA,,,,NA
html-button-response,5,31748,0.0-1.0-4.0,mdcs9lhvqatu1fr,0,Windows,Chrome,1448.0700000422075,"<p><b><u>ONLINE CONSENT FORM (PAGE 3 OF 3)</u></b><p><p><b>What happens if I say no, I do not want to be in this research?</b></p><p>You may decide not to take part in the research and it will not be held against you. It will in no way affect your relationship with the study investigators.</p><p><b>What happens if I say yes, but I change my mind later?</b></p><p>If you agree to take part in the research, you can stop at any time, and it will not be held against you. Withdrawal from study or failure to participate will not have any academic consequences to you if you are a student. Furthermore, if you are a student, there are no risks to your student career.</p><p><b>What happens to the information we collect?</b></p><p>Efforts will be made to limit the disclosure of your personal information, including research study records, to people who have a need to review this information. However, the study team cannot promise complete secrecy. For example, although the study team has put in safeguards to protect your information, there is always a potential risk of loss of confidentiality. Temple University IRB may inspect and copy your information to make sure that the study team is following the rules and regulations regarding research and the protection of human subjects.</p><p><b>Stipend/Reimbursement</b></p><p>If you agree to take part in this research, you will be compensated through the survey panel (e.g., mTurk, Qualtrics, SONA) through which you registered, after you complete the survey. However, you should have been informed about the estimated duration and exact compensation prior to registering for the study on the corresponding online forum. If not, you may discontinue at this point.</p>",0,,,,NA,NA,NA,NA,NA,NA,,NA,,,,,,,NA,,NA,,,,,,,NA,NA,NA,NA,NA,NA,NA,NA,NA,NA,NA,NA,NA,NA,NA,NA,NA,NA,NA,NA,NA,NA,NA,NA,NA,NA,NA,NA,NA,NA,NA,NA,NA,NA,NA,NA,NA,NA,NA,NA,NA,NA,NA,NA,NA,NA,NA,NA,NA,NA,NA,NA,NA,NA,NA,NA,NA,NA,NA,NA,NA,NA,NA,NA,NA,NA,NA,NA,NA,NA,NA,NA,NA,NA,NA,NA,NA,NA,NA,NA,NA,NA,NA,NA,NA,NA,NA,NA,NA,NA,NA,NA,,,,NA
html-button-response,6,33294,0.0-1.0-5.0,mdcs9lhvqatu1fr,0,Windows,Chrome,1044.4150000112131,"<p>By clicking <b>'Continue'</b> below, you <b>consent</b> to participating in this research.</p>",0,,,,NA,NA,NA,NA,NA,NA,,NA,,,,,,,NA,,NA,,,,,,,NA,NA,NA,NA,NA,NA,NA,NA,NA,NA,NA,NA,NA,NA,NA,NA,NA,NA,NA,NA,NA,NA,NA,NA,NA,NA,NA,NA,NA,NA,NA,NA,NA,NA,NA,NA,NA,NA,NA,NA,NA,NA,NA,NA,NA,NA,NA,NA,NA,NA,NA,NA,NA,NA,NA,NA,NA,NA,NA,NA,NA,NA,NA,NA,NA,NA,NA,NA,NA,NA,NA,NA,NA,NA,NA,NA,NA,NA,NA,NA,NA,NA,NA,NA,NA,NA,NA,NA,NA,NA,NA,NA,,,,NA
html-button-response,7,37973,0.0-2.0-0.0,mdcs9lhvqatu1fr,0,Windows,Chrome,4175.225000013597,"<p>In the first part of the experiment, you will view a series of faces and rate whether or not each face looks angry, disgusted, fearful, happy, sad, or surprised.</p><p>Sometimes you may be able to see the entire face. Other times you may only be able to see the top or the bottom half of the face.</p>",0,,,,NA,NA,NA,NA,NA,NA,,NA,,,,,,,NA,,NA,,,,,,,NA,NA,NA,NA,NA,NA,NA,NA,NA,NA,NA,NA,NA,NA,NA,NA,NA,NA,NA,NA,NA,NA,NA,NA,NA,NA,NA,NA,NA,NA,NA,NA,NA,NA,NA,NA,NA,NA,NA,NA,NA,NA,NA,NA,NA,NA,NA,NA,NA,NA,NA,NA,NA,NA,NA,NA,NA,NA,NA,NA,NA,NA,NA,NA,NA,NA,NA,NA,NA,NA,NA,NA,NA,NA,NA,NA,NA,NA,NA,NA,NA,NA,NA,NA,NA,NA,NA,NA,NA,NA,NA,NA,,,,NA
html-button-response,8,41160,0.0-2.0-1.0,mdcs9lhvqatu1fr,0,Windows,Chrome,2684.8799999570474,"<p>Before viewing each face, you will briefly see a + sign display in the center of the screen.</p><p>You will then see a face appear and you will press one of two keys to indicate whether or not the face is showing a certain emotion.</p>",0,,,,NA,NA,NA,NA,NA,NA,,NA,,,,,,,NA,,NA,,,,,,,NA,NA,NA,NA,NA,NA,NA,NA,NA,NA,NA,NA,NA,NA,NA,NA,NA,NA,NA,NA,NA,NA,NA,NA,NA,NA,NA,NA,NA,NA,NA,NA,NA,NA,NA,NA,NA,NA,NA,NA,NA,NA,NA,NA,NA,NA,NA,NA,NA,NA,NA,NA,NA,NA,NA,NA,NA,NA,NA,NA,NA,NA,NA,NA,NA,NA,NA,NA,NA,NA,NA,NA,NA,NA,NA,NA,NA,NA,NA,NA,NA,NA,NA,NA,NA,NA,NA,NA,NA,NA,NA,NA,,,,NA
html-button-response,9,62735,0.0-2.0-2.0,mdcs9lhvqatu1fr,0,Windows,Chrome,21071.85000006575,"<p>Please respond as quickly and accurately as possible when you see each face appear.</p><p>Once the computer has logged your response, the face will disappear and you will see the next + sign display.</p>",0,,,,NA,NA,NA,NA,NA,NA,,NA,,,,,,,NA,,NA,,,,,,,NA,NA,NA,NA,NA,NA,NA,NA,NA,NA,NA,NA,NA,NA,NA,NA,NA,NA,NA,NA,NA,NA,NA,NA,NA,NA,NA,NA,NA,NA,NA,NA,NA,NA,NA,NA,NA,NA,NA,NA,NA,NA,NA,NA,NA,NA,NA,NA,NA,NA,NA,NA,NA,NA,NA,NA,NA,NA,NA,NA,NA,NA,NA,NA,NA,NA,NA,NA,NA,NA,NA,NA,NA,NA,NA,NA,NA,NA,NA,NA,NA,NA,NA,NA,NA,NA,NA,NA,NA,NA,NA,NA,,,,NA
html-button-response,10,65474,0.0-2.0-3.0,mdcs9lhvqatu1fr,0,Windows,Chrome,2234.319999930449,<p>You will complete six rounds of the task and each round will last about 2-3 minutes.</p><p>Please click continue when you are ready to begin.</p>,0,,,,NA,NA,NA,NA,NA,NA,,NA,,,,,,,NA,,NA,,,,,,,NA,NA,NA,NA,NA,NA,NA,NA,NA,NA,NA,NA,NA,NA,NA,NA,NA,NA,NA,NA,NA,NA,NA,NA,NA,NA,NA,NA,NA,NA,NA,NA,NA,NA,NA,NA,NA,NA,NA,NA,NA,NA,NA,NA,NA,NA,NA,NA,NA,NA,NA,NA,NA,NA,NA,NA,NA,NA,NA,NA,NA,NA,NA,NA,NA,NA,NA,NA,NA,NA,NA,NA,NA,NA,NA,NA,NA,NA,NA,NA,NA,NA,NA,NA,NA,NA,NA,NA,NA,NA,NA,NA,,,,NA
html-button-response,11,73990,0.0-3.0-0.0,mdcs9lhvqatu1fr,0,Windows,Chrome,8011.679999995977,"<p>This round, you will rate whether each face looks <b>surprised</b> or not.</p><p>If the face looks <b>surprised</b>, press the letter <b>P</b>. If the face does <b>NOT</b> look surprised, press the letter <b>Q</b>.</p><p>Please respond as quickly and accurately as possible when you see each face appear.</p><p>Click continue when you are ready to start this round.</p>",0,,,,NA,NA,NA,NA,NA,NA,,NA,,,,,,,NA,,NA,,,,,,,NA,NA,NA,NA,NA,NA,NA,NA,NA,NA,NA,NA,NA,NA,NA,NA,NA,NA,NA,NA,NA,NA,NA,NA,NA,NA,NA,NA,NA,NA,NA,NA,NA,NA,NA,NA,NA,NA,NA,NA,NA,NA,NA,NA,NA,NA,NA,NA,NA,NA,NA,NA,NA,NA,NA,NA,NA,NA,NA,NA,NA,NA,NA,NA,NA,NA,NA,NA,NA,NA,NA,NA,NA,NA,NA,NA,NA,NA,NA,NA,NA,NA,NA,NA,NA,NA,NA,NA,NA,NA,NA,NA,,,,NA
survey-multi-choice,12,77059,0.0-3.0-1.0,mdcs9lhvqatu1fr,0,Windows,Chrome,2564.38499991782,,NA,"{""CheckEmotionRating"":""surprised""}",[0],instructionChecks,TRUE,NA,NA,NA,NA,NA,,NA,,,,,,,NA,,NA,,,,,,,NA,NA,NA,NA,NA,NA,NA,NA,NA,NA,NA,NA,NA,NA,NA,NA,NA,NA,NA,NA,NA,NA,NA,NA,NA,NA,NA,NA,NA,NA,NA,NA,NA,NA,NA,NA,NA,NA,NA,NA,NA,NA,NA,NA,NA,NA,NA,NA,NA,NA,NA,NA,NA,NA,NA,NA,NA,NA,NA,NA,NA,NA,NA,NA,NA,NA,NA,NA,NA,NA,NA,NA,NA,NA,NA,NA,NA,NA,NA,NA,NA,NA,NA,NA,NA,NA,NA,NA,NA,NA,NA,NA,,,,NA
survey-html-form,13,82383,0.0-3.0-2.0,mdcs9lhvqatu1fr,0,Windows,Chrome,4819.634999963455,,NA,"{""checkKeyYes"":""p"",""checkKeyNo"":""q""}",,instructionChecks,NA,TRUE,TRUE,NA,NA,NA,,NA,,,,,,,NA,,NA,,,,,,,NA,NA,NA,NA,NA,NA,NA,NA,NA,NA,NA,NA,NA,NA,NA,NA,NA,NA,NA,NA,NA,NA,NA,NA,NA,NA,NA,NA,NA,NA,NA,NA,NA,NA,NA,NA,NA,NA,NA,NA,NA,NA,NA,NA,NA,NA,NA,NA,NA,NA,NA,NA,NA,NA,NA,NA,NA,NA,NA,NA,NA,NA,NA,NA,NA,NA,NA,NA,NA,NA,NA,NA,NA,NA,NA,NA,NA,NA,NA,NA,NA,NA,NA,NA,NA,NA,NA,NA,NA,NA,NA,NA,,,,NA
html-keyboard-response,14,83887,0.0-4.0-0.0,mdcs9lhvqatu1fr,0,Windows,Chrome,NA,+,NA,,,fixation,NA,NA,NA,NA,NA,NA,,NA,,,,,,,NA,,NA,,,,,,,NA,NA,NA,NA,NA,NA,NA,NA,NA,NA,NA,NA,NA,NA,NA,NA,NA,NA,NA,NA,NA,NA,NA,NA,NA,NA,NA,NA,NA,NA,NA,NA,NA,NA,NA,NA,NA,NA,NA,NA,NA,NA,NA,NA,NA,NA,NA,NA,NA,NA,NA,NA,NA,NA,NA,NA,NA,NA,NA,NA,NA,NA,NA,NA,NA,NA,NA,NA,NA,NA,NA,NA,NA,NA,NA,NA,NA,NA,NA,NA,NA,NA,NA,NA,NA,NA,NA,NA,NA,NA,NA,NA,,,,NA
image-keyboard-response,15,84815,0.0-4.0-1.0,mdcs9lhvqatu1fr,0,Windows,Chrome,922.1050000051036,_faces/HM08_F_X.jpg,NA,,,emotionRatingFaceWindow,NA,NA,NA,80,3,0,surprised,0,HM08_F_X,HM08,H,M,F,X,1,,NA,,,,,,,NA,NA,NA,NA,NA,NA,NA,NA,NA,NA,NA,NA,NA,NA,NA,NA,NA,NA,NA,NA,NA,NA,NA,NA,NA,NA,NA,NA,NA,NA,NA,NA,NA,NA,NA,NA,NA,NA,NA,NA,NA,NA,NA,NA,NA,NA,NA,NA,NA,NA,NA,NA,NA,NA,NA,NA,NA,NA,NA,NA,NA,NA,NA,NA,NA,NA,NA,NA,NA,NA,NA,NA,NA,NA,NA,NA,NA,NA,NA,NA,NA,NA,NA,NA,NA,NA,NA,NA,NA,NA,NA,NA,,,,NA
html-keyboard-response,16,85818,0.0-4.0-0.1,mdcs9lhvqatu1fr,0,Windows,Chrome,NA,+,NA,,,fixation,NA,NA,NA,NA,NA,NA,,NA,,,,,,,NA,,NA,,,,,,,NA,NA,NA,NA,NA,NA,NA,NA,NA,NA,NA,NA,NA,NA,NA,NA,NA,NA,NA,NA,NA,NA,NA,NA,NA,NA,NA,NA,NA,NA,NA,NA,NA,NA,NA,NA,NA,NA,NA,NA,NA,NA,NA,NA,NA,NA,NA,NA,NA,NA,NA,NA,NA,NA,NA,NA,NA,NA,NA,NA,NA,NA,NA,NA,NA,NA,NA,NA,NA,NA,NA,NA,NA,NA,NA,NA,NA,NA,NA,NA,NA,NA,NA,NA,NA,NA,NA,NA,NA,NA,NA,NA,,,,NA
image-keyboard-response,17,86363,0.0-4.0-1.1,mdcs9lhvqatu1fr,0,Windows,Chrome,541.9600000604987,_faces/AM07_S_L.jpg,NA,,,emotionRatingFaceWindow,NA,NA,NA,81,3,0,surprised,1,AM07_S_L,AM07,A,M,S,L,0,,NA,,,,,,,NA,NA,NA,NA,NA,NA,NA,NA,NA,NA,NA,NA,NA,NA,NA,NA,NA,NA,NA,NA,NA,NA,NA,NA,NA,NA,NA,NA,NA,NA,NA,NA,NA,NA,NA,NA,NA,NA,NA,NA,NA,NA,NA,NA,NA,NA,NA,NA,NA,NA,NA,NA,NA,NA,NA,NA,NA,NA,NA,NA,NA,NA,NA,NA,NA,NA,NA,NA,NA,NA,NA,NA,NA,NA,NA,NA,NA,NA,NA,NA,NA,NA,NA,NA,NA,NA,NA,NA,NA,NA,NA,NA,,,,NA
html-keyboard-response,18,87365,0.0-4.0-0.2,mdcs9lhvqatu1fr,0,Windows,Chrome,NA,+,NA,,,fixation,NA,NA,NA,NA,NA,NA,,NA,,,,,,,NA,,NA,,,,,,,NA,NA,NA,NA,NA,NA,NA,NA,NA,NA,NA,NA,NA,NA,NA,NA,NA,NA,NA,NA,NA,NA,NA,NA,NA,NA,NA,NA,NA,NA,NA,NA,NA,NA,NA,NA,NA,NA,NA,NA,NA,NA,NA,NA,NA,NA,NA,NA,NA,NA,NA,NA,NA,NA,NA,NA,NA,NA,NA,NA,NA,NA,NA,NA,NA,NA,NA,NA,NA,NA,NA,NA,NA,NA,NA,NA,NA,NA,NA,NA,NA,NA,NA,NA,NA,NA,NA,NA,NA,NA,NA,NA,,,,NA
image-keyboard-response,19,87954,0.0-4.0-1.2,mdcs9lhvqatu1fr,0,Windows,Chrome,585.7300000498071,_faces/AM04_R_X.jpg,NA,,,emotionRatingFaceWindow,NA,NA,NA,80,3,0,surprised,2,AM04_R_X,AM04,A,M,R,X,1,,NA,,,,,,,NA,NA,NA,NA,NA,NA,NA,NA,NA,NA,NA,NA,NA,NA,NA,NA,NA,NA,NA,NA,NA,NA,NA,NA,NA,NA,NA,NA,NA,NA,NA,NA,NA,NA,NA,NA,NA,NA,NA,NA,NA,NA,NA,NA,NA,NA,NA,NA,NA,NA,NA,NA,NA,NA,NA,NA,NA,NA,NA,NA,NA,NA,NA,NA,NA,NA,NA,NA,NA,NA,NA,NA,NA,NA,NA,NA,NA,NA,NA,NA,NA,NA,NA,NA,NA,NA,NA,NA,NA,NA,NA,NA,,,,NA
html-keyboard-response,20,88955,0.0-4.0-0.3,mdcs9lhvqatu1fr,0,Windows,Chrome,NA,+,NA,,,fixation,NA,NA,NA,NA,NA,NA,,NA,,,,,,,NA,,NA,,,,,,,NA,NA,NA,NA,NA,NA,NA,NA,NA,NA,NA,NA,NA,NA,NA,NA,NA,NA,NA,NA,NA,NA,NA,NA,NA,NA,NA,NA,NA,NA,NA,NA,NA,NA,NA,NA,NA,NA,NA,NA,NA,NA,NA,NA,NA,NA,NA,NA,NA,NA,NA,NA,NA,NA,NA,NA,NA,NA,NA,NA,NA,NA,NA,NA,NA,NA,NA,NA,NA,NA,NA,NA,NA,NA,NA,NA,NA,NA,NA,NA,NA,NA,NA,NA,NA,NA,NA,NA,NA,NA,NA,NA,,,,NA
image-keyboard-response,21,89529,0.0-4.0-1.3,mdcs9lhvqatu1fr,0,Windows,Chrome,572.7300000144169,_faces/HF04_S_X.jpg,NA,,,emotionRatingFaceWindow,NA,NA,NA,81,3,0,surprised,3,HF04_S_X,HF04,H,F,S,X,0,,NA,,,,,,,NA,NA,NA,NA,NA,NA,NA,NA,NA,NA,NA,NA,NA,NA,NA,NA,NA,NA,NA,NA,NA,NA,NA,NA,NA,NA,NA,NA,NA,NA,NA,NA,NA,NA,NA,NA,NA,NA,NA,NA,NA,NA,NA,NA,NA,NA,NA,NA,NA,NA,NA,NA,NA,NA,NA,NA,NA,NA,NA,NA,NA,NA,NA,NA,NA,NA,NA,NA,NA,NA,NA,NA,NA,NA,NA,NA,NA,NA,NA,NA,NA,NA,NA,NA,NA,NA,NA,NA,NA,NA,NA,NA,,,,NA
html-keyboard-response,22,90531,0.0-4.0-0.4,mdcs9lhvqatu1fr,0,Windows,Chrome,NA,+,NA,,,fixation,NA,NA,NA,NA,NA,NA,,NA,,,,,,,NA,,NA,,,,,,,NA,NA,NA,NA,NA,NA,NA,NA,NA,NA,NA,NA,NA,NA,NA,NA,NA,NA,NA,NA,NA,NA,NA,NA,NA,NA,NA,NA,NA,NA,NA,NA,NA,NA,NA,NA,NA,NA,NA,NA,NA,NA,NA,NA,NA,NA,NA,NA,NA,NA,NA,NA,NA,NA,NA,NA,NA,NA,NA,NA,NA,NA,NA,NA,NA,NA,NA,NA,NA,NA,NA,NA,NA,NA,NA,NA,NA,NA,NA,NA,NA,NA,NA,NA,NA,NA,NA,NA,NA,NA,NA,NA,,,,NA
image-keyboard-response,23,91161,0.0-4.0-1.4,mdcs9lhvqatu1fr,0,Windows,Chrome,626.8549999222159,_faces/HF05_A_U.jpg,NA,,,emotionRatingFaceWindow,NA,NA,NA,81,3,0,surprised,4,HF05_A_U,HF05,H,F,A,U,0,,NA,,,,,,,NA,NA,NA,NA,NA,NA,NA,NA,NA,NA,NA,NA,NA,NA,NA,NA,NA,NA,NA,NA,NA,NA,NA,NA,NA,NA,NA,NA,NA,NA,NA,NA,NA,NA,NA,NA,NA,NA,NA,NA,NA,NA,NA,NA,NA,NA,NA,NA,NA,NA,NA,NA,NA,NA,NA,NA,NA,NA,NA,NA,NA,NA,NA,NA,NA,NA,NA,NA,NA,NA,NA,NA,NA,NA,NA,NA,NA,NA,NA,NA,NA,NA,NA,NA,NA,NA,NA,NA,NA,NA,NA,NA,,,,NA
html-keyboard-response,24,92162,0.0-4.0-0.5,mdcs9lhvqatu1fr,0,Windows,Chrome,NA,+,NA,,,fixation,NA,NA,NA,NA,NA,NA,,NA,,,,,,,NA,,NA,,,,,,,NA,NA,NA,NA,NA,NA,NA,NA,NA,NA,NA,NA,NA,NA,NA,NA,NA,NA,NA,NA,NA,NA,NA,NA,NA,NA,NA,NA,NA,NA,NA,NA,NA,NA,NA,NA,NA,NA,NA,NA,NA,NA,NA,NA,NA,NA,NA,NA,NA,NA,NA,NA,NA,NA,NA,NA,NA,NA,NA,NA,NA,NA,NA,NA,NA,NA,NA,NA,NA,NA,NA,NA,NA,NA,NA,NA,NA,NA,NA,NA,NA,NA,NA,NA,NA,NA,NA,NA,NA,NA,NA,NA,,,,NA
image-keyboard-response,25,92697,0.0-4.0-1.5,mdcs9lhvqatu1fr,0,Windows,Chrome,533.1599999917671,_faces/HF04_S_L.jpg,NA,,,emotionRatingFaceWindow,NA,NA,NA,81,3,0,surprised,5,HF04_S_L,HF04,H,F,S,L,0,,NA,,,,,,,NA,NA,NA,NA,NA,NA,NA,NA,NA,NA,NA,NA,NA,NA,NA,NA,NA,NA,NA,NA,NA,NA,NA,NA,NA,NA,NA,NA,NA,NA,NA,NA,NA,NA,NA,NA,NA,NA,NA,NA,NA,NA,NA,NA,NA,NA,NA,NA,NA,NA,NA,NA,NA,NA,NA,NA,NA,NA,NA,NA,NA,NA,NA,NA,NA,NA,NA,NA,NA,NA,NA,NA,NA,NA,NA,NA,NA,NA,NA,NA,NA,NA,NA,NA,NA,NA,NA,NA,NA,NA,NA,NA,,,,NA
html-keyboard-response,26,93699,0.0-4.0-0.6,mdcs9lhvqatu1fr,0,Windows,Chrome,NA,+,NA,,,fixation,NA,NA,NA,NA,NA,NA,,NA,,,,,,,NA,,NA,,,,,,,NA,NA,NA,NA,NA,NA,NA,NA,NA,NA,NA,NA,NA,NA,NA,NA,NA,NA,NA,NA,NA,NA,NA,NA,NA,NA,NA,NA,NA,NA,NA,NA,NA,NA,NA,NA,NA,NA,NA,NA,NA,NA,NA,NA,NA,NA,NA,NA,NA,NA,NA,NA,NA,NA,NA,NA,NA,NA,NA,NA,NA,NA,NA,NA,NA,NA,NA,NA,NA,NA,NA,NA,NA,NA,NA,NA,NA,NA,NA,NA,NA,NA,NA,NA,NA,NA,NA,NA,NA,NA,NA,NA,,,,NA
image-keyboard-response,27,94273,0.0-4.0-1.6,mdcs9lhvqatu1fr,0,Windows,Chrome,572.6799999829382,_faces/WM13_D_U.jpg,NA,,,emotionRatingFaceWindow,NA,NA,NA,80,3,0,surprised,6,WM13_D_U,WM13,W,M,D,U,1,,NA,,,,,,,NA,NA,NA,NA,NA,NA,NA,NA,NA,NA,NA,NA,NA,NA,NA,NA,NA,NA,NA,NA,NA,NA,NA,NA,NA,NA,NA,NA,NA,NA,NA,NA,NA,NA,NA,NA,NA,NA,NA,NA,NA,NA,NA,NA,NA,NA,NA,NA,NA,NA,NA,NA,NA,NA,NA,NA,NA,NA,NA,NA,NA,NA,NA,NA,NA,NA,NA,NA,NA,NA,NA,NA,NA,NA,NA,NA,NA,NA,NA,NA,NA,NA,NA,NA,NA,NA,NA,NA,NA,NA,NA,NA,,,,NA
html-keyboard-response,28,95275,0.0-4.0-0.7,mdcs9lhvqatu1fr,0,Windows,Chrome,NA,+,NA,,,fixation,NA,NA,NA,NA,NA,NA,,NA,,,,,,,NA,,NA,,,,,,,NA,NA,NA,NA,NA,NA,NA,NA,NA,NA,NA,NA,NA,NA,NA,NA,NA,NA,NA,NA,NA,NA,NA,NA,NA,NA,NA,NA,NA,NA,NA,NA,NA,NA,NA,NA,NA,NA,NA,NA,NA,NA,NA,NA,NA,NA,NA,NA,NA,NA,NA,NA,NA,NA,NA,NA,NA,NA,NA,NA,NA,NA,NA,NA,NA,NA,NA,NA,NA,NA,NA,NA,NA,NA,NA,NA,NA,NA,NA,NA,NA,NA,NA,NA,NA,NA,NA,NA,NA,NA,NA,NA,,,,NA
image-keyboard-response,29,96075,0.0-4.0-1.7,mdcs9lhvqatu1fr,0,Windows,Chrome,797.7950000204146,_faces/AF06_F_L.jpg,NA,,,emotionRatingFaceWindow,NA,NA,NA,80,3,0,surprised,7,AF06_F_L,AF06,A,F,F,L,1,,NA,,,,,,,NA,NA,NA,NA,NA,NA,NA,NA,NA,NA,NA,NA,NA,NA,NA,NA,NA,NA,NA,NA,NA,NA,NA,NA,NA,NA,NA,NA,NA,NA,NA,NA,NA,NA,NA,NA,NA,NA,NA,NA,NA,NA,NA,NA,NA,NA,NA,NA,NA,NA,NA,NA,NA,NA,NA,NA,NA,NA,NA,NA,NA,NA,NA,NA,NA,NA,NA,NA,NA,NA,NA,NA,NA,NA,NA,NA,NA,NA,NA,NA,NA,NA,NA,NA,NA,NA,NA,NA,NA,NA,NA,NA,,,,NA
html-keyboard-response,30,97080,0.0-4.0-0.8,mdcs9lhvqatu1fr,0,Windows,Chrome,NA,+,NA,,,fixation,NA,NA,NA,NA,NA,NA,,NA,,,,,,,NA,,NA,,,,,,,NA,NA,NA,NA,NA,NA,NA,NA,NA,NA,NA,NA,NA,NA,NA,NA,NA,NA,NA,NA,NA,NA,NA,NA,NA,NA,NA,NA,NA,NA,NA,NA,NA,NA,NA,NA,NA,NA,NA,NA,NA,NA,NA,NA,NA,NA,NA,NA,NA,NA,NA,NA,NA,NA,NA,NA,NA,NA,NA,NA,NA,NA,NA,NA,NA,NA,NA,NA,NA,NA,NA,NA,NA,NA,NA,NA,NA,NA,NA,NA,NA,NA,NA,NA,NA,NA,NA,NA,NA,NA,NA,NA,,,,NA
image-keyboard-response,31,97721,0.0-4.0-1.8,mdcs9lhvqatu1fr,0,Windows,Chrome,636.9499999564141,_faces/WM13_D_X.jpg,NA,,,emotionRatingFaceWindow,NA,NA,NA,80,3,0,surprised,8,WM13_D_X,WM13,W,M,D,X,1,,NA,,,,,,,NA,NA,NA,NA,NA,NA,NA,NA,NA,NA,NA,NA,NA,NA,NA,NA,NA,NA,NA,NA,NA,NA,NA,NA,NA,NA,NA,NA,NA,NA,NA,NA,NA,NA,NA,NA,NA,NA,NA,NA,NA,NA,NA,NA,NA,NA,NA,NA,NA,NA,NA,NA,NA,NA,NA,NA,NA,NA,NA,NA,NA,NA,NA,NA,NA,NA,NA,NA,NA,NA,NA,NA,NA,NA,NA,NA,NA,NA,NA,NA,NA,NA,NA,NA,NA,NA,NA,NA,NA,NA,NA,NA,,,,NA
html-keyboard-response,32,98722,0.0-4.0-0.9,mdcs9lhvqatu1fr,0,Windows,Chrome,NA,+,NA,,,fixation,NA,NA,NA,NA,NA,NA,,NA,,,,,,,NA,,NA,,,,,,,NA,NA,NA,NA,NA,NA,NA,NA,NA,NA,NA,NA,NA,NA,NA,NA,NA,NA,NA,NA,NA,NA,NA,NA,NA,NA,NA,NA,NA,NA,NA,NA,NA,NA,NA,NA,NA,NA,NA,NA,NA,NA,NA,NA,NA,NA,NA,NA,NA,NA,NA,NA,NA,NA,NA,NA,NA,NA,NA,NA,NA,NA,NA,NA,NA,NA,NA,NA,NA,NA,NA,NA,NA,NA,NA,NA,NA,NA,NA,NA,NA,NA,NA,NA,NA,NA,NA,NA,NA,NA,NA,NA,,,,NA
image-keyboard-response,33,99298,0.0-4.0-1.9,mdcs9lhvqatu1fr,0,Windows,Chrome,573.3100000070408,_faces/AF09_H_X.jpg,NA,,,emotionRatingFaceWindow,NA,NA,NA,81,3,0,surprised,9,AF09_H_X,AF09,A,F,H,X,0,,NA,,,,,,,NA,NA,NA,NA,NA,NA,NA,NA,NA,NA,NA,NA,NA,NA,NA,NA,NA,NA,NA,NA,NA,NA,NA,NA,NA,NA,NA,NA,NA,NA,NA,NA,NA,NA,NA,NA,NA,NA,NA,NA,NA,NA,NA,NA,NA,NA,NA,NA,NA,NA,NA,NA,NA,NA,NA,NA,NA,NA,NA,NA,NA,NA,NA,NA,NA,NA,NA,NA,NA,NA,NA,NA,NA,NA,NA,NA,NA,NA,NA,NA,NA,NA,NA,NA,NA,NA,NA,NA,NA,NA,NA,NA,,,,NA
html-keyboard-response,34,100302,0.0-4.0-0.10,mdcs9lhvqatu1fr,0,Windows,Chrome,NA,+,NA,,,fixation,NA,NA,NA,NA,NA,NA,,NA,,,,,,,NA,,NA,,,,,,,NA,NA,NA,NA,NA,NA,NA,NA,NA,NA,NA,NA,NA,NA,NA,NA,NA,NA,NA,NA,NA,NA,NA,NA,NA,NA,NA,NA,NA,NA,NA,NA,NA,NA,NA,NA,NA,NA,NA,NA,NA,NA,NA,NA,NA,NA,NA,NA,NA,NA,NA,NA,NA,NA,NA,NA,NA,NA,NA,NA,NA,NA,NA,NA,NA,NA,NA,NA,NA,NA,NA,NA,NA,NA,NA,NA,NA,NA,NA,NA,NA,NA,NA,NA,NA,NA,NA,NA,NA,NA,NA,NA,,,,NA
image-keyboard-response,35,100929,0.0-4.0-1.10,mdcs9lhvqatu1fr,0,Windows,Chrome,624.7950000688434,_faces/AF06_F_U.jpg,NA,,,emotionRatingFaceWindow,NA,NA,NA,80,3,0,surprised,10,AF06_F_U,AF06,A,F,F,U,1,,NA,,,,,,,NA,NA,NA,NA,NA,NA,NA,NA,NA,NA,NA,NA,NA,NA,NA,NA,NA,NA,NA,NA,NA,NA,NA,NA,NA,NA,NA,NA,NA,NA,NA,NA,NA,NA,NA,NA,NA,NA,NA,NA,NA,NA,NA,NA,NA,NA,NA,NA,NA,NA,NA,NA,NA,NA,NA,NA,NA,NA,NA,NA,NA,NA,NA,NA,NA,NA,NA,NA,NA,NA,NA,NA,NA,NA,NA,NA,NA,NA,NA,NA,NA,NA,NA,NA,NA,NA,NA,NA,NA,NA,NA,NA,,,,NA
html-keyboard-response,36,101932,0.0-4.0-0.11,mdcs9lhvqatu1fr,0,Windows,Chrome,NA,+,NA,,,fixation,NA,NA,NA,NA,NA,NA,,NA,,,,,,,NA,,NA,,,,,,,NA,NA,NA,NA,NA,NA,NA,NA,NA,NA,NA,NA,NA,NA,NA,NA,NA,NA,NA,NA,NA,NA,NA,NA,NA,NA,NA,NA,NA,NA,NA,NA,NA,NA,NA,NA,NA,NA,NA,NA,NA,NA,NA,NA,NA,NA,NA,NA,NA,NA,NA,NA,NA,NA,NA,NA,NA,NA,NA,NA,NA,NA,NA,NA,NA,NA,NA,NA,NA,NA,NA,NA,NA,NA,NA,NA,NA,NA,NA,NA,NA,NA,NA,NA,NA,NA,NA,NA,NA,NA,NA,NA,,,,NA
image-keyboard-response,37,102657,0.0-4.0-1.11,mdcs9lhvqatu1fr,0,Windows,Chrome,722.7999999886379,_faces/HM08_F_L.jpg,NA,,,emotionRatingFaceWindow,NA,NA,NA,80,3,0,surprised,11,HM08_F_L,HM08,H,M,F,L,1,,NA,,,,,,,NA,NA,NA,NA,NA,NA,NA,NA,NA,NA,NA,NA,NA,NA,NA,NA,NA,NA,NA,NA,NA,NA,NA,NA,NA,NA,NA,NA,NA,NA,NA,NA,NA,NA,NA,NA,NA,NA,NA,NA,NA,NA,NA,NA,NA,NA,NA,NA,NA,NA,NA,NA,NA,NA,NA,NA,NA,NA,NA,NA,NA,NA,NA,NA,NA,NA,NA,NA,NA,NA,NA,NA,NA,NA,NA,NA,NA,NA,NA,NA,NA,NA,NA,NA,NA,NA,NA,NA,NA,NA,NA,NA,,,,NA
html-keyboard-response,38,103661,0.0-4.0-0.12,mdcs9lhvqatu1fr,0,Windows,Chrome,NA,+,NA,,,fixation,NA,NA,NA,NA,NA,NA,,NA,,,,,,,NA,,NA,,,,,,,NA,NA,NA,NA,NA,NA,NA,NA,NA,NA,NA,NA,NA,NA,NA,NA,NA,NA,NA,NA,NA,NA,NA,NA,NA,NA,NA,NA,NA,NA,NA,NA,NA,NA,NA,NA,NA,NA,NA,NA,NA,NA,NA,NA,NA,NA,NA,NA,NA,NA,NA,NA,NA,NA,NA,NA,NA,NA,NA,NA,NA,NA,NA,NA,NA,NA,NA,NA,NA,NA,NA,NA,NA,NA,NA,NA,NA,NA,NA,NA,NA,NA,NA,NA,NA,NA,NA,NA,NA,NA,NA,NA,,,,NA
image-keyboard-response,39,104360,0.0-4.0-1.12,mdcs9lhvqatu1fr,0,Windows,Chrome,696.7749999603257,_faces/WF02_R_U.jpg,NA,,,emotionRatingFaceWindow,NA,NA,NA,80,3,0,surprised,12,WF02_R_U,WF02,W,F,R,U,1,,NA,,,,,,,NA,NA,NA,NA,NA,NA,NA,NA,NA,NA,NA,NA,NA,NA,NA,NA,NA,NA,NA,NA,NA,NA,NA,NA,NA,NA,NA,NA,NA,NA,NA,NA,NA,NA,NA,NA,NA,NA,NA,NA,NA,NA,NA,NA,NA,NA,NA,NA,NA,NA,NA,NA,NA,NA,NA,NA,NA,NA,NA,NA,NA,NA,NA,NA,NA,NA,NA,NA,NA,NA,NA,NA,NA,NA,NA,NA,NA,NA,NA,NA,NA,NA,NA,NA,NA,NA,NA,NA,NA,NA,NA,NA,,,,NA
html-keyboard-response,40,105361,0.0-4.0-0.13,mdcs9lhvqatu1fr,0,Windows,Chrome,NA,+,NA,,,fixation,NA,NA,NA,NA,NA,NA,,NA,,,,,,,NA,,NA,,,,,,,NA,NA,NA,NA,NA,NA,NA,NA,NA,NA,NA,NA,NA,NA,NA,NA,NA,NA,NA,NA,NA,NA,NA,NA,NA,NA,NA,NA,NA,NA,NA,NA,NA,NA,NA,NA,NA,NA,NA,NA,NA,NA,NA,NA,NA,NA,NA,NA,NA,NA,NA,NA,NA,NA,NA,NA,NA,NA,NA,NA,NA,NA,NA,NA,NA,NA,NA,NA,NA,NA,NA,NA,NA,NA,NA,NA,NA,NA,NA,NA,NA,NA,NA,NA,NA,NA,NA,NA,NA,NA,NA,NA,,,,NA
image-keyboard-response,41,105987,0.0-4.0-1.13,mdcs9lhvqatu1fr,0,Windows,Chrome,624.1900000022724,_faces/AM11_A_U.jpg,NA,,,emotionRatingFaceWindow,NA,NA,NA,81,3,0,surprised,13,AM11_A_U,AM11,A,M,A,U,0,,NA,,,,,,,NA,NA,NA,NA,NA,NA,NA,NA,NA,NA,NA,NA,NA,NA,NA,NA,NA,NA,NA,NA,NA,NA,NA,NA,NA,NA,NA,NA,NA,NA,NA,NA,NA,NA,NA,NA,NA,NA,NA,NA,NA,NA,NA,NA,NA,NA,NA,NA,NA,NA,NA,NA,NA,NA,NA,NA,NA,NA,NA,NA,NA,NA,NA,NA,NA,NA,NA,NA,NA,NA,NA,NA,NA,NA,NA,NA,NA,NA,NA,NA,NA,NA,NA,NA,NA,NA,NA,NA,NA,NA,NA,NA,,,,NA
html-keyboard-response,42,106989,0.0-4.0-0.14,mdcs9lhvqatu1fr,0,Windows,Chrome,NA,+,NA,,,fixation,NA,NA,NA,NA,NA,NA,,NA,,,,,,,NA,,NA,,,,,,,NA,NA,NA,NA,NA,NA,NA,NA,NA,NA,NA,NA,NA,NA,NA,NA,NA,NA,NA,NA,NA,NA,NA,NA,NA,NA,NA,NA,NA,NA,NA,NA,NA,NA,NA,NA,NA,NA,NA,NA,NA,NA,NA,NA,NA,NA,NA,NA,NA,NA,NA,NA,NA,NA,NA,NA,NA,NA,NA,NA,NA,NA,NA,NA,NA,NA,NA,NA,NA,NA,NA,NA,NA,NA,NA,NA,NA,NA,NA,NA,NA,NA,NA,NA,NA,NA,NA,NA,NA,NA,NA,NA,,,,NA
image-keyboard-response,43,107526,0.0-4.0-1.14,mdcs9lhvqatu1fr,0,Windows,Chrome,532.9299999866635,_faces/AM04_R_U.jpg,NA,,,emotionRatingFaceWindow,NA,NA,NA,80,3,0,surprised,14,AM04_R_U,AM04,A,M,R,U,1,,NA,,,,,,,NA,NA,NA,NA,NA,NA,NA,NA,NA,NA,NA,NA,NA,NA,NA,NA,NA,NA,NA,NA,NA,NA,NA,NA,NA,NA,NA,NA,NA,NA,NA,NA,NA,NA,NA,NA,NA,NA,NA,NA,NA,NA,NA,NA,NA,NA,NA,NA,NA,NA,NA,NA,NA,NA,NA,NA,NA,NA,NA,NA,NA,NA,NA,NA,NA,NA,NA,NA,NA,NA,NA,NA,NA,NA,NA,NA,NA,NA,NA,NA,NA,NA,NA,NA,NA,NA,NA,NA,NA,NA,NA,NA,,,,NA
html-keyboard-response,44,108529,0.0-4.0-0.15,mdcs9lhvqatu1fr,0,Windows,Chrome,NA,+,NA,,,fixation,NA,NA,NA,NA,NA,NA,,NA,,,,,,,NA,,NA,,,,,,,NA,NA,NA,NA,NA,NA,NA,NA,NA,NA,NA,NA,NA,NA,NA,NA,NA,NA,NA,NA,NA,NA,NA,NA,NA,NA,NA,NA,NA,NA,NA,NA,NA,NA,NA,NA,NA,NA,NA,NA,NA,NA,NA,NA,NA,NA,NA,NA,NA,NA,NA,NA,NA,NA,NA,NA,NA,NA,NA,NA,NA,NA,NA,NA,NA,NA,NA,NA,NA,NA,NA,NA,NA,NA,NA,NA,NA,NA,NA,NA,NA,NA,NA,NA,NA,NA,NA,NA,NA,NA,NA,NA,,,,NA
image-keyboard-response,45,109201,0.0-4.0-1.15,mdcs9lhvqatu1fr,0,Windows,Chrome,669.6950000477955,_faces/AM04_R_L.jpg,NA,,,emotionRatingFaceWindow,NA,NA,NA,80,3,0,surprised,15,AM04_R_L,AM04,A,M,R,L,1,,NA,,,,,,,NA,NA,NA,NA,NA,NA,NA,NA,NA,NA,NA,NA,NA,NA,NA,NA,NA,NA,NA,NA,NA,NA,NA,NA,NA,NA,NA,NA,NA,NA,NA,NA,NA,NA,NA,NA,NA,NA,NA,NA,NA,NA,NA,NA,NA,NA,NA,NA,NA,NA,NA,NA,NA,NA,NA,NA,NA,NA,NA,NA,NA,NA,NA,NA,NA,NA,NA,NA,NA,NA,NA,NA,NA,NA,NA,NA,NA,NA,NA,NA,NA,NA,NA,NA,NA,NA,NA,NA,NA,NA,NA,NA,,,,NA
html-keyboard-response,46,110203,0.0-4.0-0.16,mdcs9lhvqatu1fr,0,Windows,Chrome,NA,+,NA,,,fixation,NA,NA,NA,NA,NA,NA,,NA,,,,,,,NA,,NA,,,,,,,NA,NA,NA,NA,NA,NA,NA,NA,NA,NA,NA,NA,NA,NA,NA,NA,NA,NA,NA,NA,NA,NA,NA,NA,NA,NA,NA,NA,NA,NA,NA,NA,NA,NA,NA,NA,NA,NA,NA,NA,NA,NA,NA,NA,NA,NA,NA,NA,NA,NA,NA,NA,NA,NA,NA,NA,NA,NA,NA,NA,NA,NA,NA,NA,NA,NA,NA,NA,NA,NA,NA,NA,NA,NA,NA,NA,NA,NA,NA,NA,NA,NA,NA,NA,NA,NA,NA,NA,NA,NA,NA,NA,,,,NA
image-keyboard-response,47,110782,0.0-4.0-1.16,mdcs9lhvqatu1fr,0,Windows,Chrome,577.6250000344589,_faces/WF05_S_U.jpg,NA,,,emotionRatingFaceWindow,NA,NA,NA,81,3,0,surprised,16,WF05_S_U,WF05,W,F,S,U,0,,NA,,,,,,,NA,NA,NA,NA,NA,NA,NA,NA,NA,NA,NA,NA,NA,NA,NA,NA,NA,NA,NA,NA,NA,NA,NA,NA,NA,NA,NA,NA,NA,NA,NA,NA,NA,NA,NA,NA,NA,NA,NA,NA,NA,NA,NA,NA,NA,NA,NA,NA,NA,NA,NA,NA,NA,NA,NA,NA,NA,NA,NA,NA,NA,NA,NA,NA,NA,NA,NA,NA,NA,NA,NA,NA,NA,NA,NA,NA,NA,NA,NA,NA,NA,NA,NA,NA,NA,NA,NA,NA,NA,NA,NA,NA,,,,NA
html-keyboard-response,48,111791,0.0-4.0-0.17,mdcs9lhvqatu1fr,0,Windows,Chrome,NA,+,NA,,,fixation,NA,NA,NA,NA,NA,NA,,NA,,,,,,,NA,,NA,,,,,,,NA,NA,NA,NA,NA,NA,NA,NA,NA,NA,NA,NA,NA,NA,NA,NA,NA,NA,NA,NA,NA,NA,NA,NA,NA,NA,NA,NA,NA,NA,NA,NA,NA,NA,NA,NA,NA,NA,NA,NA,NA,NA,NA,NA,NA,NA,NA,NA,NA,NA,NA,NA,NA,NA,NA,NA,NA,NA,NA,NA,NA,NA,NA,NA,NA,NA,NA,NA,NA,NA,NA,NA,NA,NA,NA,NA,NA,NA,NA,NA,NA,NA,NA,NA,NA,NA,NA,NA,NA,NA,NA,NA,,,,NA
image-keyboard-response,49,112321,0.0-4.0-1.17,mdcs9lhvqatu1fr,0,Windows,Chrome,525.3800000064075,_faces/HM08_F_U.jpg,NA,,,emotionRatingFaceWindow,NA,NA,NA,80,3,0,surprised,17,HM08_F_U,HM08,H,M,F,U,1,,NA,,,,,,,NA,NA,NA,NA,NA,NA,NA,NA,NA,NA,NA,NA,NA,NA,NA,NA,NA,NA,NA,NA,NA,NA,NA,NA,NA,NA,NA,NA,NA,NA,NA,NA,NA,NA,NA,NA,NA,NA,NA,NA,NA,NA,NA,NA,NA,NA,NA,NA,NA,NA,NA,NA,NA,NA,NA,NA,NA,NA,NA,NA,NA,NA,NA,NA,NA,NA,NA,NA,NA,NA,NA,NA,NA,NA,NA,NA,NA,NA,NA,NA,NA,NA,NA,NA,NA,NA,NA,NA,NA,NA,NA,NA,,,,NA
html-keyboard-response,50,113322,0.0-4.0-0.18,mdcs9lhvqatu1fr,0,Windows,Chrome,NA,+,NA,,,fixation,NA,NA,NA,NA,NA,NA,,NA,,,,,,,NA,,NA,,,,,,,NA,NA,NA,NA,NA,NA,NA,NA,NA,NA,NA,NA,NA,NA,NA,NA,NA,NA,NA,NA,NA,NA,NA,NA,NA,NA,NA,NA,NA,NA,NA,NA,NA,NA,NA,NA,NA,NA,NA,NA,NA,NA,NA,NA,NA,NA,NA,NA,NA,NA,NA,NA,NA,NA,NA,NA,NA,NA,NA,NA,NA,NA,NA,NA,NA,NA,NA,NA,NA,NA,NA,NA,NA,NA,NA,NA,NA,NA,NA,NA,NA,NA,NA,NA,NA,NA,NA,NA,NA,NA,NA,NA,,,,NA
image-keyboard-response,51,113840,0.0-4.0-1.18,mdcs9lhvqatu1fr,0,Windows,Chrome,515.7899999758229,_faces/HF09_D_U.jpg,NA,,,emotionRatingFaceWindow,NA,NA,NA,80,3,0,surprised,18,HF09_D_U,HF09,H,F,D,U,1,,NA,,,,,,,NA,NA,NA,NA,NA,NA,NA,NA,NA,NA,NA,NA,NA,NA,NA,NA,NA,NA,NA,NA,NA,NA,NA,NA,NA,NA,NA,NA,NA,NA,NA,NA,NA,NA,NA,NA,NA,NA,NA,NA,NA,NA,NA,NA,NA,NA,NA,NA,NA,NA,NA,NA,NA,NA,NA,NA,NA,NA,NA,NA,NA,NA,NA,NA,NA,NA,NA,NA,NA,NA,NA,NA,NA,NA,NA,NA,NA,NA,NA,NA,NA,NA,NA,NA,NA,NA,NA,NA,NA,NA,NA,NA,,,,NA
html-keyboard-response,52,114842,0.0-4.0-0.19,mdcs9lhvqatu1fr,0,Windows,Chrome,NA,+,NA,,,fixation,NA,NA,NA,NA,NA,NA,,NA,,,,,,,NA,,NA,,,,,,,NA,NA,NA,NA,NA,NA,NA,NA,NA,NA,NA,NA,NA,NA,NA,NA,NA,NA,NA,NA,NA,NA,NA,NA,NA,NA,NA,NA,NA,NA,NA,NA,NA,NA,NA,NA,NA,NA,NA,NA,NA,NA,NA,NA,NA,NA,NA,NA,NA,NA,NA,NA,NA,NA,NA,NA,NA,NA,NA,NA,NA,NA,NA,NA,NA,NA,NA,NA,NA,NA,NA,NA,NA,NA,NA,NA,NA,NA,NA,NA,NA,NA,NA,NA,NA,NA,NA,NA,NA,NA,NA,NA,,,,NA
image-keyboard-response,53,115481,0.0-4.0-1.19,mdcs9lhvqatu1fr,0,Windows,Chrome,636.4449999528006,_faces/AF06_F_X.jpg,NA,,,emotionRatingFaceWindow,NA,NA,NA,80,3,0,surprised,19,AF06_F_X,AF06,A,F,F,X,1,,NA,,,,,,,NA,NA,NA,NA,NA,NA,NA,NA,NA,NA,NA,NA,NA,NA,NA,NA,NA,NA,NA,NA,NA,NA,NA,NA,NA,NA,NA,NA,NA,NA,NA,NA,NA,NA,NA,NA,NA,NA,NA,NA,NA,NA,NA,NA,NA,NA,NA,NA,NA,NA,NA,NA,NA,NA,NA,NA,NA,NA,NA,NA,NA,NA,NA,NA,NA,NA,NA,NA,NA,NA,NA,NA,NA,NA,NA,NA,NA,NA,NA,NA,NA,NA,NA,NA,NA,NA,NA,NA,NA,NA,NA,NA,,,,NA
html-keyboard-response,54,116484,0.0-4.0-0.20,mdcs9lhvqatu1fr,0,Windows,Chrome,NA,+,NA,,,fixation,NA,NA,NA,NA,NA,NA,,NA,,,,,,,NA,,NA,,,,,,,NA,NA,NA,NA,NA,NA,NA,NA,NA,NA,NA,NA,NA,NA,NA,NA,NA,NA,NA,NA,NA,NA,NA,NA,NA,NA,NA,NA,NA,NA,NA,NA,NA,NA,NA,NA,NA,NA,NA,NA,NA,NA,NA,NA,NA,NA,NA,NA,NA,NA,NA,NA,NA,NA,NA,NA,NA,NA,NA,NA,NA,NA,NA,NA,NA,NA,NA,NA,NA,NA,NA,NA,NA,NA,NA,NA,NA,NA,NA,NA,NA,NA,NA,NA,NA,NA,NA,NA,NA,NA,NA,NA,,,,NA
image-keyboard-response,55,117105,0.0-4.0-1.20,mdcs9lhvqatu1fr,0,Windows,Chrome,618.3650000020862,_faces/BF10_D_L.jpg,NA,,,emotionRatingFaceWindow,NA,NA,NA,81,3,0,surprised,20,BF10_D_L,BF10,B,F,D,L,0,,NA,,,,,,,NA,NA,NA,NA,NA,NA,NA,NA,NA,NA,NA,NA,NA,NA,NA,NA,NA,NA,NA,NA,NA,NA,NA,NA,NA,NA,NA,NA,NA,NA,NA,NA,NA,NA,NA,NA,NA,NA,NA,NA,NA,NA,NA,NA,NA,NA,NA,NA,NA,NA,NA,NA,NA,NA,NA,NA,NA,NA,NA,NA,NA,NA,NA,NA,NA,NA,NA,NA,NA,NA,NA,NA,NA,NA,NA,NA,NA,NA,NA,NA,NA,NA,NA,NA,NA,NA,NA,NA,NA,NA,NA,NA,,,,NA
html-keyboard-response,56,118107,0.0-4.0-0.21,mdcs9lhvqatu1fr,0,Windows,Chrome,NA,+,NA,,,fixation,NA,NA,NA,NA,NA,NA,,NA,,,,,,,NA,,NA,,,,,,,NA,NA,NA,NA,NA,NA,NA,NA,NA,NA,NA,NA,NA,NA,NA,NA,NA,NA,NA,NA,NA,NA,NA,NA,NA,NA,NA,NA,NA,NA,NA,NA,NA,NA,NA,NA,NA,NA,NA,NA,NA,NA,NA,NA,NA,NA,NA,NA,NA,NA,NA,NA,NA,NA,NA,NA,NA,NA,NA,NA,NA,NA,NA,NA,NA,NA,NA,NA,NA,NA,NA,NA,NA,NA,NA,NA,NA,NA,NA,NA,NA,NA,NA,NA,NA,NA,NA,NA,NA,NA,NA,NA,,,,NA
image-keyboard-response,57,118790,0.0-4.0-1.21,mdcs9lhvqatu1fr,0,Windows,Chrome,681.1499999603257,_faces/AF09_H_U.jpg,NA,,,emotionRatingFaceWindow,NA,NA,NA,81,3,0,surprised,21,AF09_H_U,AF09,A,F,H,U,0,,NA,,,,,,,NA,NA,NA,NA,NA,NA,NA,NA,NA,NA,NA,NA,NA,NA,NA,NA,NA,NA,NA,NA,NA,NA,NA,NA,NA,NA,NA,NA,NA,NA,NA,NA,NA,NA,NA,NA,NA,NA,NA,NA,NA,NA,NA,NA,NA,NA,NA,NA,NA,NA,NA,NA,NA,NA,NA,NA,NA,NA,NA,NA,NA,NA,NA,NA,NA,NA,NA,NA,NA,NA,NA,NA,NA,NA,NA,NA,NA,NA,NA,NA,NA,NA,NA,NA,NA,NA,NA,NA,NA,NA,NA,NA,,,,NA
html-keyboard-response,58,119792,0.0-4.0-0.22,mdcs9lhvqatu1fr,0,Windows,Chrome,NA,+,NA,,,fixation,NA,NA,NA,NA,NA,NA,,NA,,,,,,,NA,,NA,,,,,,,NA,NA,NA,NA,NA,NA,NA,NA,NA,NA,NA,NA,NA,NA,NA,NA,NA,NA,NA,NA,NA,NA,NA,NA,NA,NA,NA,NA,NA,NA,NA,NA,NA,NA,NA,NA,NA,NA,NA,NA,NA,NA,NA,NA,NA,NA,NA,NA,NA,NA,NA,NA,NA,NA,NA,NA,NA,NA,NA,NA,NA,NA,NA,NA,NA,NA,NA,NA,NA,NA,NA,NA,NA,NA,NA,NA,NA,NA,NA,NA,NA,NA,NA,NA,NA,NA,NA,NA,NA,NA,NA,NA,,,,NA
image-keyboard-response,59,120368,0.0-4.0-1.22,mdcs9lhvqatu1fr,0,Windows,Chrome,572.7849999675527,_faces/HM09_H_X.jpg,NA,,,emotionRatingFaceWindow,NA,NA,NA,81,3,0,surprised,22,HM09_H_X,HM09,H,M,H,X,0,,NA,,,,,,,NA,NA,NA,NA,NA,NA,NA,NA,NA,NA,NA,NA,NA,NA,NA,NA,NA,NA,NA,NA,NA,NA,NA,NA,NA,NA,NA,NA,NA,NA,NA,NA,NA,NA,NA,NA,NA,NA,NA,NA,NA,NA,NA,NA,NA,NA,NA,NA,NA,NA,NA,NA,NA,NA,NA,NA,NA,NA,NA,NA,NA,NA,NA,NA,NA,NA,NA,NA,NA,NA,NA,NA,NA,NA,NA,NA,NA,NA,NA,NA,NA,NA,NA,NA,NA,NA,NA,NA,NA,NA,NA,NA,,,,NA
html-keyboard-response,60,121370,0.0-4.0-0.23,mdcs9lhvqatu1fr,0,Windows,Chrome,NA,+,NA,,,fixation,NA,NA,NA,NA,NA,NA,,NA,,,,,,,NA,,NA,,,,,,,NA,NA,NA,NA,NA,NA,NA,NA,NA,NA,NA,NA,NA,NA,NA,NA,NA,NA,NA,NA,NA,NA,NA,NA,NA,NA,NA,NA,NA,NA,NA,NA,NA,NA,NA,NA,NA,NA,NA,NA,NA,NA,NA,NA,NA,NA,NA,NA,NA,NA,NA,NA,NA,NA,NA,NA,NA,NA,NA,NA,NA,NA,NA,NA,NA,NA,NA,NA,NA,NA,NA,NA,NA,NA,NA,NA,NA,NA,NA,NA,NA,NA,NA,NA,NA,NA,NA,NA,NA,NA,NA,NA,,,,NA
image-keyboard-response,61,121961,0.0-4.0-1.23,mdcs9lhvqatu1fr,0,Windows,Chrome,588.6249999748543,_faces/BM16_H_L.jpg,NA,,,emotionRatingFaceWindow,NA,NA,NA,80,3,0,surprised,23,BM16_H_L,BM16,B,M,H,L,1,,NA,,,,,,,NA,NA,NA,NA,NA,NA,NA,NA,NA,NA,NA,NA,NA,NA,NA,NA,NA,NA,NA,NA,NA,NA,NA,NA,NA,NA,NA,NA,NA,NA,NA,NA,NA,NA,NA,NA,NA,NA,NA,NA,NA,NA,NA,NA,NA,NA,NA,NA,NA,NA,NA,NA,NA,NA,NA,NA,NA,NA,NA,NA,NA,NA,NA,NA,NA,NA,NA,NA,NA,NA,NA,NA,NA,NA,NA,NA,NA,NA,NA,NA,NA,NA,NA,NA,NA,NA,NA,NA,NA,NA,NA,NA,,,,NA
html-keyboard-response,62,122962,0.0-4.0-0.24,mdcs9lhvqatu1fr,0,Windows,Chrome,NA,+,NA,,,fixation,NA,NA,NA,NA,NA,NA,,NA,,,,,,,NA,,NA,,,,,,,NA,NA,NA,NA,NA,NA,NA,NA,NA,NA,NA,NA,NA,NA,NA,NA,NA,NA,NA,NA,NA,NA,NA,NA,NA,NA,NA,NA,NA,NA,NA,NA,NA,NA,NA,NA,NA,NA,NA,NA,NA,NA,NA,NA,NA,NA,NA,NA,NA,NA,NA,NA,NA,NA,NA,NA,NA,NA,NA,NA,NA,NA,NA,NA,NA,NA,NA,NA,NA,NA,NA,NA,NA,NA,NA,NA,NA,NA,NA,NA,NA,NA,NA,NA,NA,NA,NA,NA,NA,NA,NA,NA,,,,NA
image-keyboard-response,63,123650,0.0-4.0-1.24,mdcs9lhvqatu1fr,0,Windows,Chrome,687.0650000637397,_faces/WM09_A_L.jpg,NA,,,emotionRatingFaceWindow,NA,NA,NA,81,3,0,surprised,24,WM09_A_L,WM09,W,M,A,L,0,,NA,,,,,,,NA,NA,NA,NA,NA,NA,NA,NA,NA,NA,NA,NA,NA,NA,NA,NA,NA,NA,NA,NA,NA,NA,NA,NA,NA,NA,NA,NA,NA,NA,NA,NA,NA,NA,NA,NA,NA,NA,NA,NA,NA,NA,NA,NA,NA,NA,NA,NA,NA,NA,NA,NA,NA,NA,NA,NA,NA,NA,NA,NA,NA,NA,NA,NA,NA,NA,NA,NA,NA,NA,NA,NA,NA,NA,NA,NA,NA,NA,NA,NA,NA,NA,NA,NA,NA,NA,NA,NA,NA,NA,NA,NA,,,,NA
html-keyboard-response,64,124653,0.0-4.0-0.25,mdcs9lhvqatu1fr,0,Windows,Chrome,NA,+,NA,,,fixation,NA,NA,NA,NA,NA,NA,,NA,,,,,,,NA,,NA,,,,,,,NA,NA,NA,NA,NA,NA,NA,NA,NA,NA,NA,NA,NA,NA,NA,NA,NA,NA,NA,NA,NA,NA,NA,NA,NA,NA,NA,NA,NA,NA,NA,NA,NA,NA,NA,NA,NA,NA,NA,NA,NA,NA,NA,NA,NA,NA,NA,NA,NA,NA,NA,NA,NA,NA,NA,NA,NA,NA,NA,NA,NA,NA,NA,NA,NA,NA,NA,NA,NA,NA,NA,NA,NA,NA,NA,NA,NA,NA,NA,NA,NA,NA,NA,NA,NA,NA,NA,NA,NA,NA,NA,NA,,,,NA
image-keyboard-response,65,125323,0.0-4.0-1.25,mdcs9lhvqatu1fr,0,Windows,Chrome,667.5950000062585,_faces/BF15_F_L.jpg,NA,,,emotionRatingFaceWindow,NA,NA,NA,80,3,0,surprised,25,BF15_F_L,BF15,B,F,F,L,1,,NA,,,,,,,NA,NA,NA,NA,NA,NA,NA,NA,NA,NA,NA,NA,NA,NA,NA,NA,NA,NA,NA,NA,NA,NA,NA,NA,NA,NA,NA,NA,NA,NA,NA,NA,NA,NA,NA,NA,NA,NA,NA,NA,NA,NA,NA,NA,NA,NA,NA,NA,NA,NA,NA,NA,NA,NA,NA,NA,NA,NA,NA,NA,NA,NA,NA,NA,NA,NA,NA,NA,NA,NA,NA,NA,NA,NA,NA,NA,NA,NA,NA,NA,NA,NA,NA,NA,NA,NA,NA,NA,NA,NA,NA,NA,,,,NA
html-keyboard-response,66,126341,0.0-4.0-0.26,mdcs9lhvqatu1fr,0,Windows,Chrome,NA,+,NA,,,fixation,NA,NA,NA,NA,NA,NA,,NA,,,,,,,NA,,NA,,,,,,,NA,NA,NA,NA,NA,NA,NA,NA,NA,NA,NA,NA,NA,NA,NA,NA,NA,NA,NA,NA,NA,NA,NA,NA,NA,NA,NA,NA,NA,NA,NA,NA,NA,NA,NA,NA,NA,NA,NA,NA,NA,NA,NA,NA,NA,NA,NA,NA,NA,NA,NA,NA,NA,NA,NA,NA,NA,NA,NA,NA,NA,NA,NA,NA,NA,NA,NA,NA,NA,NA,NA,NA,NA,NA,NA,NA,NA,NA,NA,NA,NA,NA,NA,NA,NA,NA,NA,NA,NA,NA,NA,NA,,,,NA
image-keyboard-response,67,126960,0.0-4.0-1.26,mdcs9lhvqatu1fr,0,Windows,Chrome,617.5049999728799,_faces/WF02_R_L.jpg,NA,,,emotionRatingFaceWindow,NA,NA,NA,80,3,0,surprised,26,WF02_R_L,WF02,W,F,R,L,1,,NA,,,,,,,NA,NA,NA,NA,NA,NA,NA,NA,NA,NA,NA,NA,NA,NA,NA,NA,NA,NA,NA,NA,NA,NA,NA,NA,NA,NA,NA,NA,NA,NA,NA,NA,NA,NA,NA,NA,NA,NA,NA,NA,NA,NA,NA,NA,NA,NA,NA,NA,NA,NA,NA,NA,NA,NA,NA,NA,NA,NA,NA,NA,NA,NA,NA,NA,NA,NA,NA,NA,NA,NA,NA,NA,NA,NA,NA,NA,NA,NA,NA,NA,NA,NA,NA,NA,NA,NA,NA,NA,NA,NA,NA,NA,,,,NA
html-keyboard-response,68,127961,0.0-4.0-0.27,mdcs9lhvqatu1fr,0,Windows,Chrome,NA,+,NA,,,fixation,NA,NA,NA,NA,NA,NA,,NA,,,,,,,NA,,NA,,,,,,,NA,NA,NA,NA,NA,NA,NA,NA,NA,NA,NA,NA,NA,NA,NA,NA,NA,NA,NA,NA,NA,NA,NA,NA,NA,NA,NA,NA,NA,NA,NA,NA,NA,NA,NA,NA,NA,NA,NA,NA,NA,NA,NA,NA,NA,NA,NA,NA,NA,NA,NA,NA,NA,NA,NA,NA,NA,NA,NA,NA,NA,NA,NA,NA,NA,NA,NA,NA,NA,NA,NA,NA,NA,NA,NA,NA,NA,NA,NA,NA,NA,NA,NA,NA,NA,NA,NA,NA,NA,NA,NA,NA,,,,NA
image-keyboard-response,69,128490,0.0-4.0-1.27,mdcs9lhvqatu1fr,0,Windows,Chrome,525.8550000144169,_faces/BF15_F_U.jpg,NA,,,emotionRatingFaceWindow,NA,NA,NA,81,3,0,surprised,27,BF15_F_U,BF15,B,F,F,U,0,,NA,,,,,,,NA,NA,NA,NA,NA,NA,NA,NA,NA,NA,NA,NA,NA,NA,NA,NA,NA,NA,NA,NA,NA,NA,NA,NA,NA,NA,NA,NA,NA,NA,NA,NA,NA,NA,NA,NA,NA,NA,NA,NA,NA,NA,NA,NA,NA,NA,NA,NA,NA,NA,NA,NA,NA,NA,NA,NA,NA,NA,NA,NA,NA,NA,NA,NA,NA,NA,NA,NA,NA,NA,NA,NA,NA,NA,NA,NA,NA,NA,NA,NA,NA,NA,NA,NA,NA,NA,NA,NA,NA,NA,NA,NA,,,,NA
html-keyboard-response,70,129493,0.0-4.0-0.28,mdcs9lhvqatu1fr,0,Windows,Chrome,NA,+,NA,,,fixation,NA,NA,NA,NA,NA,NA,,NA,,,,,,,NA,,NA,,,,,,,NA,NA,NA,NA,NA,NA,NA,NA,NA,NA,NA,NA,NA,NA,NA,NA,NA,NA,NA,NA,NA,NA,NA,NA,NA,NA,NA,NA,NA,NA,NA,NA,NA,NA,NA,NA,NA,NA,NA,NA,NA,NA,NA,NA,NA,NA,NA,NA,NA,NA,NA,NA,NA,NA,NA,NA,NA,NA,NA,NA,NA,NA,NA,NA,NA,NA,NA,NA,NA,NA,NA,NA,NA,NA,NA,NA,NA,NA,NA,NA,NA,NA,NA,NA,NA,NA,NA,NA,NA,NA,NA,NA,,,,NA
image-keyboard-response,71,130165,0.0-4.0-1.28,mdcs9lhvqatu1fr,0,Windows,Chrome,670.6799999810755,_faces/BF15_F_X.jpg,NA,,,emotionRatingFaceWindow,NA,NA,NA,81,3,0,surprised,28,BF15_F_X,BF15,B,F,F,X,0,,NA,,,,,,,NA,NA,NA,NA,NA,NA,NA,NA,NA,NA,NA,NA,NA,NA,NA,NA,NA,NA,NA,NA,NA,NA,NA,NA,NA,NA,NA,NA,NA,NA,NA,NA,NA,NA,NA,NA,NA,NA,NA,NA,NA,NA,NA,NA,NA,NA,NA,NA,NA,NA,NA,NA,NA,NA,NA,NA,NA,NA,NA,NA,NA,NA,NA,NA,NA,NA,NA,NA,NA,NA,NA,NA,NA,NA,NA,NA,NA,NA,NA,NA,NA,NA,NA,NA,NA,NA,NA,NA,NA,NA,NA,NA,,,,NA
html-keyboard-response,72,131167,0.0-4.0-0.29,mdcs9lhvqatu1fr,0,Windows,Chrome,NA,+,NA,,,fixation,NA,NA,NA,NA,NA,NA,,NA,,,,,,,NA,,NA,,,,,,,NA,NA,NA,NA,NA,NA,NA,NA,NA,NA,NA,NA,NA,NA,NA,NA,NA,NA,NA,NA,NA,NA,NA,NA,NA,NA,NA,NA,NA,NA,NA,NA,NA,NA,NA,NA,NA,NA,NA,NA,NA,NA,NA,NA,NA,NA,NA,NA,NA,NA,NA,NA,NA,NA,NA,NA,NA,NA,NA,NA,NA,NA,NA,NA,NA,NA,NA,NA,NA,NA,NA,NA,NA,NA,NA,NA,NA,NA,NA,NA,NA,NA,NA,NA,NA,NA,NA,NA,NA,NA,NA,NA,,,,NA
image-keyboard-response,73,131785,0.0-4.0-1.29,mdcs9lhvqatu1fr,0,Windows,Chrome,616.4799999678507,_faces/AM07_S_U.jpg,NA,,,emotionRatingFaceWindow,NA,NA,NA,81,3,0,surprised,29,AM07_S_U,AM07,A,M,S,U,0,,NA,,,,,,,NA,NA,NA,NA,NA,NA,NA,NA,NA,NA,NA,NA,NA,NA,NA,NA,NA,NA,NA,NA,NA,NA,NA,NA,NA,NA,NA,NA,NA,NA,NA,NA,NA,NA,NA,NA,NA,NA,NA,NA,NA,NA,NA,NA,NA,NA,NA,NA,NA,NA,NA,NA,NA,NA,NA,NA,NA,NA,NA,NA,NA,NA,NA,NA,NA,NA,NA,NA,NA,NA,NA,NA,NA,NA,NA,NA,NA,NA,NA,NA,NA,NA,NA,NA,NA,NA,NA,NA,NA,NA,NA,NA,,,,NA
html-keyboard-response,74,132788,0.0-4.0-0.30,mdcs9lhvqatu1fr,0,Windows,Chrome,NA,+,NA,,,fixation,NA,NA,NA,NA,NA,NA,,NA,,,,,,,NA,,NA,,,,,,,NA,NA,NA,NA,NA,NA,NA,NA,NA,NA,NA,NA,NA,NA,NA,NA,NA,NA,NA,NA,NA,NA,NA,NA,NA,NA,NA,NA,NA,NA,NA,NA,NA,NA,NA,NA,NA,NA,NA,NA,NA,NA,NA,NA,NA,NA,NA,NA,NA,NA,NA,NA,NA,NA,NA,NA,NA,NA,NA,NA,NA,NA,NA,NA,NA,NA,NA,NA,NA,NA,NA,NA,NA,NA,NA,NA,NA,NA,NA,NA,NA,NA,NA,NA,NA,NA,NA,NA,NA,NA,NA,NA,,,,NA
image-keyboard-response,75,133409,0.0-4.0-1.30,mdcs9lhvqatu1fr,0,Windows,Chrome,618.5500000137836,_faces/BM17_R_L.jpg,NA,,,emotionRatingFaceWindow,NA,NA,NA,80,3,0,surprised,30,BM17_R_L,BM17,B,M,R,L,1,,NA,,,,,,,NA,NA,NA,NA,NA,NA,NA,NA,NA,NA,NA,NA,NA,NA,NA,NA,NA,NA,NA,NA,NA,NA,NA,NA,NA,NA,NA,NA,NA,NA,NA,NA,NA,NA,NA,NA,NA,NA,NA,NA,NA,NA,NA,NA,NA,NA,NA,NA,NA,NA,NA,NA,NA,NA,NA,NA,NA,NA,NA,NA,NA,NA,NA,NA,NA,NA,NA,NA,NA,NA,NA,NA,NA,NA,NA,NA,NA,NA,NA,NA,NA,NA,NA,NA,NA,NA,NA,NA,NA,NA,NA,NA,,,,NA
html-keyboard-response,76,134411,0.0-4.0-0.31,mdcs9lhvqatu1fr,0,Windows,Chrome,NA,+,NA,,,fixation,NA,NA,NA,NA,NA,NA,,NA,,,,,,,NA,,NA,,,,,,,NA,NA,NA,NA,NA,NA,NA,NA,NA,NA,NA,NA,NA,NA,NA,NA,NA,NA,NA,NA,NA,NA,NA,NA,NA,NA,NA,NA,NA,NA,NA,NA,NA,NA,NA,NA,NA,NA,NA,NA,NA,NA,NA,NA,NA,NA,NA,NA,NA,NA,NA,NA,NA,NA,NA,NA,NA,NA,NA,NA,NA,NA,NA,NA,NA,NA,NA,NA,NA,NA,NA,NA,NA,NA,NA,NA,NA,NA,NA,NA,NA,NA,NA,NA,NA,NA,NA,NA,NA,NA,NA,NA,,,,NA
image-keyboard-response,77,134969,0.0-4.0-1.31,mdcs9lhvqatu1fr,0,Windows,Chrome,556.1549999983981,_faces/WM09_A_X.jpg,NA,,,emotionRatingFaceWindow,NA,NA,NA,81,3,0,surprised,31,WM09_A_X,WM09,W,M,A,X,0,,NA,,,,,,,NA,NA,NA,NA,NA,NA,NA,NA,NA,NA,NA,NA,NA,NA,NA,NA,NA,NA,NA,NA,NA,NA,NA,NA,NA,NA,NA,NA,NA,NA,NA,NA,NA,NA,NA,NA,NA,NA,NA,NA,NA,NA,NA,NA,NA,NA,NA,NA,NA,NA,NA,NA,NA,NA,NA,NA,NA,NA,NA,NA,NA,NA,NA,NA,NA,NA,NA,NA,NA,NA,NA,NA,NA,NA,NA,NA,NA,NA,NA,NA,NA,NA,NA,NA,NA,NA,NA,NA,NA,NA,NA,NA,,,,NA
html-keyboard-response,78,135976,0.0-4.0-0.32,mdcs9lhvqatu1fr,0,Windows,Chrome,NA,+,NA,,,fixation,NA,NA,NA,NA,NA,NA,,NA,,,,,,,NA,,NA,,,,,,,NA,NA,NA,NA,NA,NA,NA,NA,NA,NA,NA,NA,NA,NA,NA,NA,NA,NA,NA,NA,NA,NA,NA,NA,NA,NA,NA,NA,NA,NA,NA,NA,NA,NA,NA,NA,NA,NA,NA,NA,NA,NA,NA,NA,NA,NA,NA,NA,NA,NA,NA,NA,NA,NA,NA,NA,NA,NA,NA,NA,NA,NA,NA,NA,NA,NA,NA,NA,NA,NA,NA,NA,NA,NA,NA,NA,NA,NA,NA,NA,NA,NA,NA,NA,NA,NA,NA,NA,NA,NA,NA,NA,,,,NA
image-keyboard-response,79,136561,0.0-4.0-1.32,mdcs9lhvqatu1fr,0,Windows,Chrome,581.415000022389,_faces/HF05_A_X.jpg,NA,,,emotionRatingFaceWindow,NA,NA,NA,81,3,0,surprised,32,HF05_A_X,HF05,H,F,A,X,0,,NA,,,,,,,NA,NA,NA,NA,NA,NA,NA,NA,NA,NA,NA,NA,NA,NA,NA,NA,NA,NA,NA,NA,NA,NA,NA,NA,NA,NA,NA,NA,NA,NA,NA,NA,NA,NA,NA,NA,NA,NA,NA,NA,NA,NA,NA,NA,NA,NA,NA,NA,NA,NA,NA,NA,NA,NA,NA,NA,NA,NA,NA,NA,NA,NA,NA,NA,NA,NA,NA,NA,NA,NA,NA,NA,NA,NA,NA,NA,NA,NA,NA,NA,NA,NA,NA,NA,NA,NA,NA,NA,NA,NA,NA,NA,,,,NA
html-keyboard-response,80,137564,0.0-4.0-0.33,mdcs9lhvqatu1fr,0,Windows,Chrome,NA,+,NA,,,fixation,NA,NA,NA,NA,NA,NA,,NA,,,,,,,NA,,NA,,,,,,,NA,NA,NA,NA,NA,NA,NA,NA,NA,NA,NA,NA,NA,NA,NA,NA,NA,NA,NA,NA,NA,NA,NA,NA,NA,NA,NA,NA,NA,NA,NA,NA,NA,NA,NA,NA,NA,NA,NA,NA,NA,NA,NA,NA,NA,NA,NA,NA,NA,NA,NA,NA,NA,NA,NA,NA,NA,NA,NA,NA,NA,NA,NA,NA,NA,NA,NA,NA,NA,NA,NA,NA,NA,NA,NA,NA,NA,NA,NA,NA,NA,NA,NA,NA,NA,NA,NA,NA,NA,NA,NA,NA,,,,NA
image-keyboard-response,81,138201,0.0-4.0-1.33,mdcs9lhvqatu1fr,0,Windows,Chrome,634.9100000225008,_faces/WM13_D_L.jpg,NA,,,emotionRatingFaceWindow,NA,NA,NA,80,3,0,surprised,33,WM13_D_L,WM13,W,M,D,L,1,,NA,,,,,,,NA,NA,NA,NA,NA,NA,NA,NA,NA,NA,NA,NA,NA,NA,NA,NA,NA,NA,NA,NA,NA,NA,NA,NA,NA,NA,NA,NA,NA,NA,NA,NA,NA,NA,NA,NA,NA,NA,NA,NA,NA,NA,NA,NA,NA,NA,NA,NA,NA,NA,NA,NA,NA,NA,NA,NA,NA,NA,NA,NA,NA,NA,NA,NA,NA,NA,NA,NA,NA,NA,NA,NA,NA,NA,NA,NA,NA,NA,NA,NA,NA,NA,NA,NA,NA,NA,NA,NA,NA,NA,NA,NA,,,,NA
html-keyboard-response,82,139205,0.0-4.0-0.34,mdcs9lhvqatu1fr,0,Windows,Chrome,NA,+,NA,,,fixation,NA,NA,NA,NA,NA,NA,,NA,,,,,,,NA,,NA,,,,,,,NA,NA,NA,NA,NA,NA,NA,NA,NA,NA,NA,NA,NA,NA,NA,NA,NA,NA,NA,NA,NA,NA,NA,NA,NA,NA,NA,NA,NA,NA,NA,NA,NA,NA,NA,NA,NA,NA,NA,NA,NA,NA,NA,NA,NA,NA,NA,NA,NA,NA,NA,NA,NA,NA,NA,NA,NA,NA,NA,NA,NA,NA,NA,NA,NA,NA,NA,NA,NA,NA,NA,NA,NA,NA,NA,NA,NA,NA,NA,NA,NA,NA,NA,NA,NA,NA,NA,NA,NA,NA,NA,NA,,,,NA
image-keyboard-response,83,139994,0.0-4.0-1.34,mdcs9lhvqatu1fr,0,Windows,Chrome,785.5500000296161,_faces/HM09_H_L.jpg,NA,,,emotionRatingFaceWindow,NA,NA,NA,81,3,0,surprised,34,HM09_H_L,HM09,H,M,H,L,0,,NA,,,,,,,NA,NA,NA,NA,NA,NA,NA,NA,NA,NA,NA,NA,NA,NA,NA,NA,NA,NA,NA,NA,NA,NA,NA,NA,NA,NA,NA,NA,NA,NA,NA,NA,NA,NA,NA,NA,NA,NA,NA,NA,NA,NA,NA,NA,NA,NA,NA,NA,NA,NA,NA,NA,NA,NA,NA,NA,NA,NA,NA,NA,NA,NA,NA,NA,NA,NA,NA,NA,NA,NA,NA,NA,NA,NA,NA,NA,NA,NA,NA,NA,NA,NA,NA,NA,NA,NA,NA,NA,NA,NA,NA,NA,,,,NA
html-keyboard-response,84,140995,0.0-4.0-0.35,mdcs9lhvqatu1fr,0,Windows,Chrome,NA,+,NA,,,fixation,NA,NA,NA,NA,NA,NA,,NA,,,,,,,NA,,NA,,,,,,,NA,NA,NA,NA,NA,NA,NA,NA,NA,NA,NA,NA,NA,NA,NA,NA,NA,NA,NA,NA,NA,NA,NA,NA,NA,NA,NA,NA,NA,NA,NA,NA,NA,NA,NA,NA,NA,NA,NA,NA,NA,NA,NA,NA,NA,NA,NA,NA,NA,NA,NA,NA,NA,NA,NA,NA,NA,NA,NA,NA,NA,NA,NA,NA,NA,NA,NA,NA,NA,NA,NA,NA,NA,NA,NA,NA,NA,NA,NA,NA,NA,NA,NA,NA,NA,NA,NA,NA,NA,NA,NA,NA,,,,NA
image-keyboard-response,85,141741,0.0-4.0-1.35,mdcs9lhvqatu1fr,0,Windows,Chrome,742.8850000724196,_faces/HF09_D_L.jpg,NA,,,emotionRatingFaceWindow,NA,NA,NA,81,3,0,surprised,35,HF09_D_L,HF09,H,F,D,L,0,,NA,,,,,,,NA,NA,NA,NA,NA,NA,NA,NA,NA,NA,NA,NA,NA,NA,NA,NA,NA,NA,NA,NA,NA,NA,NA,NA,NA,NA,NA,NA,NA,NA,NA,NA,NA,NA,NA,NA,NA,NA,NA,NA,NA,NA,NA,NA,NA,NA,NA,NA,NA,NA,NA,NA,NA,NA,NA,NA,NA,NA,NA,NA,NA,NA,NA,NA,NA,NA,NA,NA,NA,NA,NA,NA,NA,NA,NA,NA,NA,NA,NA,NA,NA,NA,NA,NA,NA,NA,NA,NA,NA,NA,NA,NA,,,,NA
html-keyboard-response,86,142744,0.0-4.0-0.36,mdcs9lhvqatu1fr,0,Windows,Chrome,NA,+,NA,,,fixation,NA,NA,NA,NA,NA,NA,,NA,,,,,,,NA,,NA,,,,,,,NA,NA,NA,NA,NA,NA,NA,NA,NA,NA,NA,NA,NA,NA,NA,NA,NA,NA,NA,NA,NA,NA,NA,NA,NA,NA,NA,NA,NA,NA,NA,NA,NA,NA,NA,NA,NA,NA,NA,NA,NA,NA,NA,NA,NA,NA,NA,NA,NA,NA,NA,NA,NA,NA,NA,NA,NA,NA,NA,NA,NA,NA,NA,NA,NA,NA,NA,NA,NA,NA,NA,NA,NA,NA,NA,NA,NA,NA,NA,NA,NA,NA,NA,NA,NA,NA,NA,NA,NA,NA,NA,NA,,,,NA
image-keyboard-response,87,143608,0.0-4.0-1.36,mdcs9lhvqatu1fr,0,Windows,Chrome,861.0300000291318,_faces/AF09_H_L.jpg,NA,,,emotionRatingFaceWindow,NA,NA,NA,81,3,0,surprised,36,AF09_H_L,AF09,A,F,H,L,0,,NA,,,,,,,NA,NA,NA,NA,NA,NA,NA,NA,NA,NA,NA,NA,NA,NA,NA,NA,NA,NA,NA,NA,NA,NA,NA,NA,NA,NA,NA,NA,NA,NA,NA,NA,NA,NA,NA,NA,NA,NA,NA,NA,NA,NA,NA,NA,NA,NA,NA,NA,NA,NA,NA,NA,NA,NA,NA,NA,NA,NA,NA,NA,NA,NA,NA,NA,NA,NA,NA,NA,NA,NA,NA,NA,NA,NA,NA,NA,NA,NA,NA,NA,NA,NA,NA,NA,NA,NA,NA,NA,NA,NA,NA,NA,,,,NA
html-keyboard-response,88,144611,0.0-4.0-0.37,mdcs9lhvqatu1fr,0,Windows,Chrome,NA,+,NA,,,fixation,NA,NA,NA,NA,NA,NA,,NA,,,,,,,NA,,NA,,,,,,,NA,NA,NA,NA,NA,NA,NA,NA,NA,NA,NA,NA,NA,NA,NA,NA,NA,NA,NA,NA,NA,NA,NA,NA,NA,NA,NA,NA,NA,NA,NA,NA,NA,NA,NA,NA,NA,NA,NA,NA,NA,NA,NA,NA,NA,NA,NA,NA,NA,NA,NA,NA,NA,NA,NA,NA,NA,NA,NA,NA,NA,NA,NA,NA,NA,NA,NA,NA,NA,NA,NA,NA,NA,NA,NA,NA,NA,NA,NA,NA,NA,NA,NA,NA,NA,NA,NA,NA,NA,NA,NA,NA,,,,NA
image-keyboard-response,89,145209,0.0-4.0-1.37,mdcs9lhvqatu1fr,0,Windows,Chrome,580.2850000327453,_faces/WF02_R_X.jpg,NA,,,emotionRatingFaceWindow,NA,NA,NA,80,3,0,surprised,37,WF02_R_X,WF02,W,F,R,X,1,,NA,,,,,,,NA,NA,NA,NA,NA,NA,NA,NA,NA,NA,NA,NA,NA,NA,NA,NA,NA,NA,NA,NA,NA,NA,NA,NA,NA,NA,NA,NA,NA,NA,NA,NA,NA,NA,NA,NA,NA,NA,NA,NA,NA,NA,NA,NA,NA,NA,NA,NA,NA,NA,NA,NA,NA,NA,NA,NA,NA,NA,NA,NA,NA,NA,NA,NA,NA,NA,NA,NA,NA,NA,NA,NA,NA,NA,NA,NA,NA,NA,NA,NA,NA,NA,NA,NA,NA,NA,NA,NA,NA,NA,NA,NA,,,,NA
html-keyboard-response,90,146211,0.0-4.0-0.38,mdcs9lhvqatu1fr,0,Windows,Chrome,NA,+,NA,,,fixation,NA,NA,NA,NA,NA,NA,,NA,,,,,,,NA,,NA,,,,,,,NA,NA,NA,NA,NA,NA,NA,NA,NA,NA,NA,NA,NA,NA,NA,NA,NA,NA,NA,NA,NA,NA,NA,NA,NA,NA,NA,NA,NA,NA,NA,NA,NA,NA,NA,NA,NA,NA,NA,NA,NA,NA,NA,NA,NA,NA,NA,NA,NA,NA,NA,NA,NA,NA,NA,NA,NA,NA,NA,NA,NA,NA,NA,NA,NA,NA,NA,NA,NA,NA,NA,NA,NA,NA,NA,NA,NA,NA,NA,NA,NA,NA,NA,NA,NA,NA,NA,NA,NA,NA,NA,NA,,,,NA
image-keyboard-response,91,146752,0.0-4.0-1.38,mdcs9lhvqatu1fr,0,Windows,Chrome,539.6099999779835,_faces/HF05_A_L.jpg,NA,,,emotionRatingFaceWindow,NA,NA,NA,80,3,0,surprised,38,HF05_A_L,HF05,H,F,A,L,1,,NA,,,,,,,NA,NA,NA,NA,NA,NA,NA,NA,NA,NA,NA,NA,NA,NA,NA,NA,NA,NA,NA,NA,NA,NA,NA,NA,NA,NA,NA,NA,NA,NA,NA,NA,NA,NA,NA,NA,NA,NA,NA,NA,NA,NA,NA,NA,NA,NA,NA,NA,NA,NA,NA,NA,NA,NA,NA,NA,NA,NA,NA,NA,NA,NA,NA,NA,NA,NA,NA,NA,NA,NA,NA,NA,NA,NA,NA,NA,NA,NA,NA,NA,NA,NA,NA,NA,NA,NA,NA,NA,NA,NA,NA,NA,,,,NA
html-keyboard-response,92,147752,0.0-4.0-0.39,mdcs9lhvqatu1fr,0,Windows,Chrome,NA,+,NA,,,fixation,NA,NA,NA,NA,NA,NA,,NA,,,,,,,NA,,NA,,,,,,,NA,NA,NA,NA,NA,NA,NA,NA,NA,NA,NA,NA,NA,NA,NA,NA,NA,NA,NA,NA,NA,NA,NA,NA,NA,NA,NA,NA,NA,NA,NA,NA,NA,NA,NA,NA,NA,NA,NA,NA,NA,NA,NA,NA,NA,NA,NA,NA,NA,NA,NA,NA,NA,NA,NA,NA,NA,NA,NA,NA,NA,NA,NA,NA,NA,NA,NA,NA,NA,NA,NA,NA,NA,NA,NA,NA,NA,NA,NA,NA,NA,NA,NA,NA,NA,NA,NA,NA,NA,NA,NA,NA,,,,NA
image-keyboard-response,93,148368,0.0-4.0-1.39,mdcs9lhvqatu1fr,0,Windows,Chrome,613.9350000303239,_faces/BM16_H_U.jpg,NA,,,emotionRatingFaceWindow,NA,NA,NA,81,3,0,surprised,39,BM16_H_U,BM16,B,M,H,U,0,,NA,,,,,,,NA,NA,NA,NA,NA,NA,NA,NA,NA,NA,NA,NA,NA,NA,NA,NA,NA,NA,NA,NA,NA,NA,NA,NA,NA,NA,NA,NA,NA,NA,NA,NA,NA,NA,NA,NA,NA,NA,NA,NA,NA,NA,NA,NA,NA,NA,NA,NA,NA,NA,NA,NA,NA,NA,NA,NA,NA,NA,NA,NA,NA,NA,NA,NA,NA,NA,NA,NA,NA,NA,NA,NA,NA,NA,NA,NA,NA,NA,NA,NA,NA,NA,NA,NA,NA,NA,NA,NA,NA,NA,NA,NA,,,,NA
html-keyboard-response,94,149370,0.0-4.0-0.40,mdcs9lhvqatu1fr,0,Windows,Chrome,NA,+,NA,,,fixation,NA,NA,NA,NA,NA,NA,,NA,,,,,,,NA,,NA,,,,,,,NA,NA,NA,NA,NA,NA,NA,NA,NA,NA,NA,NA,NA,NA,NA,NA,NA,NA,NA,NA,NA,NA,NA,NA,NA,NA,NA,NA,NA,NA,NA,NA,NA,NA,NA,NA,NA,NA,NA,NA,NA,NA,NA,NA,NA,NA,NA,NA,NA,NA,NA,NA,NA,NA,NA,NA,NA,NA,NA,NA,NA,NA,NA,NA,NA,NA,NA,NA,NA,NA,NA,NA,NA,NA,NA,NA,NA,NA,NA,NA,NA,NA,NA,NA,NA,NA,NA,NA,NA,NA,NA,NA,,,,NA
image-keyboard-response,95,150001,0.0-4.0-1.40,mdcs9lhvqatu1fr,0,Windows,Chrome,628.1650000018999,_faces/BF10_D_U.jpg,NA,,,emotionRatingFaceWindow,NA,NA,NA,80,3,0,surprised,40,BF10_D_U,BF10,B,F,D,U,1,,NA,,,,,,,NA,NA,NA,NA,NA,NA,NA,NA,NA,NA,NA,NA,NA,NA,NA,NA,NA,NA,NA,NA,NA,NA,NA,NA,NA,NA,NA,NA,NA,NA,NA,NA,NA,NA,NA,NA,NA,NA,NA,NA,NA,NA,NA,NA,NA,NA,NA,NA,NA,NA,NA,NA,NA,NA,NA,NA,NA,NA,NA,NA,NA,NA,NA,NA,NA,NA,NA,NA,NA,NA,NA,NA,NA,NA,NA,NA,NA,NA,NA,NA,NA,NA,NA,NA,NA,NA,NA,NA,NA,NA,NA,NA,,,,NA
html-keyboard-response,96,151003,0.0-4.0-0.41,mdcs9lhvqatu1fr,0,Windows,Chrome,NA,+,NA,,,fixation,NA,NA,NA,NA,NA,NA,,NA,,,,,,,NA,,NA,,,,,,,NA,NA,NA,NA,NA,NA,NA,NA,NA,NA,NA,NA,NA,NA,NA,NA,NA,NA,NA,NA,NA,NA,NA,NA,NA,NA,NA,NA,NA,NA,NA,NA,NA,NA,NA,NA,NA,NA,NA,NA,NA,NA,NA,NA,NA,NA,NA,NA,NA,NA,NA,NA,NA,NA,NA,NA,NA,NA,NA,NA,NA,NA,NA,NA,NA,NA,NA,NA,NA,NA,NA,NA,NA,NA,NA,NA,NA,NA,NA,NA,NA,NA,NA,NA,NA,NA,NA,NA,NA,NA,NA,NA,,,,NA
image-keyboard-response,97,151634,0.0-4.0-1.41,mdcs9lhvqatu1fr,0,Windows,Chrome,627.9700000304729,_faces/WM09_A_U.jpg,NA,,,emotionRatingFaceWindow,NA,NA,NA,81,3,0,surprised,41,WM09_A_U,WM09,W,M,A,U,0,,NA,,,,,,,NA,NA,NA,NA,NA,NA,NA,NA,NA,NA,NA,NA,NA,NA,NA,NA,NA,NA,NA,NA,NA,NA,NA,NA,NA,NA,NA,NA,NA,NA,NA,NA,NA,NA,NA,NA,NA,NA,NA,NA,NA,NA,NA,NA,NA,NA,NA,NA,NA,NA,NA,NA,NA,NA,NA,NA,NA,NA,NA,NA,NA,NA,NA,NA,NA,NA,NA,NA,NA,NA,NA,NA,NA,NA,NA,NA,NA,NA,NA,NA,NA,NA,NA,NA,NA,NA,NA,NA,NA,NA,NA,NA,,,,NA
html-keyboard-response,98,152636,0.0-4.0-0.42,mdcs9lhvqatu1fr,0,Windows,Chrome,NA,+,NA,,,fixation,NA,NA,NA,NA,NA,NA,,NA,,,,,,,NA,,NA,,,,,,,NA,NA,NA,NA,NA,NA,NA,NA,NA,NA,NA,NA,NA,NA,NA,NA,NA,NA,NA,NA,NA,NA,NA,NA,NA,NA,NA,NA,NA,NA,NA,NA,NA,NA,NA,NA,NA,NA,NA,NA,NA,NA,NA,NA,NA,NA,NA,NA,NA,NA,NA,NA,NA,NA,NA,NA,NA,NA,NA,NA,NA,NA,NA,NA,NA,NA,NA,NA,NA,NA,NA,NA,NA,NA,NA,NA,NA,NA,NA,NA,NA,NA,NA,NA,NA,NA,NA,NA,NA,NA,NA,NA,,,,NA
image-keyboard-response,99,153525,0.0-4.0-1.42,mdcs9lhvqatu1fr,0,Windows,Chrome,878.4300000406802,_faces/BM17_R_U.jpg,NA,,,emotionRatingFaceWindow,NA,NA,NA,80,3,0,surprised,42,BM17_R_U,BM17,B,M,R,U,1,,NA,,,,,,,NA,NA,NA,NA,NA,NA,NA,NA,NA,NA,NA,NA,NA,NA,NA,NA,NA,NA,NA,NA,NA,NA,NA,NA,NA,NA,NA,NA,NA,NA,NA,NA,NA,NA,NA,NA,NA,NA,NA,NA,NA,NA,NA,NA,NA,NA,NA,NA,NA,NA,NA,NA,NA,NA,NA,NA,NA,NA,NA,NA,NA,NA,NA,NA,NA,NA,NA,NA,NA,NA,NA,NA,NA,NA,NA,NA,NA,NA,NA,NA,NA,NA,NA,NA,NA,NA,NA,NA,NA,NA,NA,NA,,,,NA
html-keyboard-response,100,154527,0.0-4.0-0.43,mdcs9lhvqatu1fr,0,Windows,Chrome,NA,+,NA,,,fixation,NA,NA,NA,NA,NA,NA,,NA,,,,,,,NA,,NA,,,,,,,NA,NA,NA,NA,NA,NA,NA,NA,NA,NA,NA,NA,NA,NA,NA,NA,NA,NA,NA,NA,NA,NA,NA,NA,NA,NA,NA,NA,NA,NA,NA,NA,NA,NA,NA,NA,NA,NA,NA,NA,NA,NA,NA,NA,NA,NA,NA,NA,NA,NA,NA,NA,NA,NA,NA,NA,NA,NA,NA,NA,NA,NA,NA,NA,NA,NA,NA,NA,NA,NA,NA,NA,NA,NA,NA,NA,NA,NA,NA,NA,NA,NA,NA,NA,NA,NA,NA,NA,NA,NA,NA,NA,,,,NA
image-keyboard-response,101,155130,0.0-4.0-1.43,mdcs9lhvqatu1fr,0,Windows,Chrome,599.5699999621138,_faces/HM09_H_U.jpg,NA,,,emotionRatingFaceWindow,NA,NA,NA,81,3,0,surprised,43,HM09_H_U,HM09,H,M,H,U,0,,NA,,,,,,,NA,NA,NA,NA,NA,NA,NA,NA,NA,NA,NA,NA,NA,NA,NA,NA,NA,NA,NA,NA,NA,NA,NA,NA,NA,NA,NA,NA,NA,NA,NA,NA,NA,NA,NA,NA,NA,NA,NA,NA,NA,NA,NA,NA,NA,NA,NA,NA,NA,NA,NA,NA,NA,NA,NA,NA,NA,NA,NA,NA,NA,NA,NA,NA,NA,NA,NA,NA,NA,NA,NA,NA,NA,NA,NA,NA,NA,NA,NA,NA,NA,NA,NA,NA,NA,NA,NA,NA,NA,NA,NA,NA,,,,NA
html-keyboard-response,102,156132,0.0-4.0-0.44,mdcs9lhvqatu1fr,0,Windows,Chrome,NA,+,NA,,,fixation,NA,NA,NA,NA,NA,NA,,NA,,,,,,,NA,,NA,,,,,,,NA,NA,NA,NA,NA,NA,NA,NA,NA,NA,NA,NA,NA,NA,NA,NA,NA,NA,NA,NA,NA,NA,NA,NA,NA,NA,NA,NA,NA,NA,NA,NA,NA,NA,NA,NA,NA,NA,NA,NA,NA,NA,NA,NA,NA,NA,NA,NA,NA,NA,NA,NA,NA,NA,NA,NA,NA,NA,NA,NA,NA,NA,NA,NA,NA,NA,NA,NA,NA,NA,NA,NA,NA,NA,NA,NA,NA,NA,NA,NA,NA,NA,NA,NA,NA,NA,NA,NA,NA,NA,NA,NA,,,,NA
image-keyboard-response,103,156720,0.0-4.0-1.44,mdcs9lhvqatu1fr,0,Windows,Chrome,585.3300000308082,_faces/AM07_S_X.jpg,NA,,,emotionRatingFaceWindow,NA,NA,NA,81,3,0,surprised,44,AM07_S_X,AM07,A,M,S,X,0,,NA,,,,,,,NA,NA,NA,NA,NA,NA,NA,NA,NA,NA,NA,NA,NA,NA,NA,NA,NA,NA,NA,NA,NA,NA,NA,NA,NA,NA,NA,NA,NA,NA,NA,NA,NA,NA,NA,NA,NA,NA,NA,NA,NA,NA,NA,NA,NA,NA,NA,NA,NA,NA,NA,NA,NA,NA,NA,NA,NA,NA,NA,NA,NA,NA,NA,NA,NA,NA,NA,NA,NA,NA,NA,NA,NA,NA,NA,NA,NA,NA,NA,NA,NA,NA,NA,NA,NA,NA,NA,NA,NA,NA,NA,NA,,,,NA
html-keyboard-response,104,157721,0.0-4.0-0.45,mdcs9lhvqatu1fr,0,Windows,Chrome,NA,+,NA,,,fixation,NA,NA,NA,NA,NA,NA,,NA,,,,,,,NA,,NA,,,,,,,NA,NA,NA,NA,NA,NA,NA,NA,NA,NA,NA,NA,NA,NA,NA,NA,NA,NA,NA,NA,NA,NA,NA,NA,NA,NA,NA,NA,NA,NA,NA,NA,NA,NA,NA,NA,NA,NA,NA,NA,NA,NA,NA,NA,NA,NA,NA,NA,NA,NA,NA,NA,NA,NA,NA,NA,NA,NA,NA,NA,NA,NA,NA,NA,NA,NA,NA,NA,NA,NA,NA,NA,NA,NA,NA,NA,NA,NA,NA,NA,NA,NA,NA,NA,NA,NA,NA,NA,NA,NA,NA,NA,,,,NA
image-keyboard-response,105,158370,0.0-4.0-1.45,mdcs9lhvqatu1fr,0,Windows,Chrome,647.2800000337884,_faces/AM11_A_L.jpg,NA,,,emotionRatingFaceWindow,NA,NA,NA,81,3,0,surprised,45,AM11_A_L,AM11,A,M,A,L,0,,NA,,,,,,,NA,NA,NA,NA,NA,NA,NA,NA,NA,NA,NA,NA,NA,NA,NA,NA,NA,NA,NA,NA,NA,NA,NA,NA,NA,NA,NA,NA,NA,NA,NA,NA,NA,NA,NA,NA,NA,NA,NA,NA,NA,NA,NA,NA,NA,NA,NA,NA,NA,NA,NA,NA,NA,NA,NA,NA,NA,NA,NA,NA,NA,NA,NA,NA,NA,NA,NA,NA,NA,NA,NA,NA,NA,NA,NA,NA,NA,NA,NA,NA,NA,NA,NA,NA,NA,NA,NA,NA,NA,NA,NA,NA,,,,NA
html-keyboard-response,106,159371,0.0-4.0-0.46,mdcs9lhvqatu1fr,0,Windows,Chrome,NA,+,NA,,,fixation,NA,NA,NA,NA,NA,NA,,NA,,,,,,,NA,,NA,,,,,,,NA,NA,NA,NA,NA,NA,NA,NA,NA,NA,NA,NA,NA,NA,NA,NA,NA,NA,NA,NA,NA,NA,NA,NA,NA,NA,NA,NA,NA,NA,NA,NA,NA,NA,NA,NA,NA,NA,NA,NA,NA,NA,NA,NA,NA,NA,NA,NA,NA,NA,NA,NA,NA,NA,NA,NA,NA,NA,NA,NA,NA,NA,NA,NA,NA,NA,NA,NA,NA,NA,NA,NA,NA,NA,NA,NA,NA,NA,NA,NA,NA,NA,NA,NA,NA,NA,NA,NA,NA,NA,NA,NA,,,,NA
image-keyboard-response,107,159874,0.0-4.0-1.46,mdcs9lhvqatu1fr,0,Windows,Chrome,499.5399999897927,_faces/WF05_S_X.jpg,NA,,,emotionRatingFaceWindow,NA,NA,NA,81,3,0,surprised,46,WF05_S_X,WF05,W,F,S,X,0,,NA,,,,,,,NA,NA,NA,NA,NA,NA,NA,NA,NA,NA,NA,NA,NA,NA,NA,NA,NA,NA,NA,NA,NA,NA,NA,NA,NA,NA,NA,NA,NA,NA,NA,NA,NA,NA,NA,NA,NA,NA,NA,NA,NA,NA,NA,NA,NA,NA,NA,NA,NA,NA,NA,NA,NA,NA,NA,NA,NA,NA,NA,NA,NA,NA,NA,NA,NA,NA,NA,NA,NA,NA,NA,NA,NA,NA,NA,NA,NA,NA,NA,NA,NA,NA,NA,NA,NA,NA,NA,NA,NA,NA,NA,NA,,,,NA
html-keyboard-response,108,160876,0.0-4.0-0.47,mdcs9lhvqatu1fr,0,Windows,Chrome,NA,+,NA,,,fixation,NA,NA,NA,NA,NA,NA,,NA,,,,,,,NA,,NA,,,,,,,NA,NA,NA,NA,NA,NA,NA,NA,NA,NA,NA,NA,NA,NA,NA,NA,NA,NA,NA,NA,NA,NA,NA,NA,NA,NA,NA,NA,NA,NA,NA,NA,NA,NA,NA,NA,NA,NA,NA,NA,NA,NA,NA,NA,NA,NA,NA,NA,NA,NA,NA,NA,NA,NA,NA,NA,NA,NA,NA,NA,NA,NA,NA,NA,NA,NA,NA,NA,NA,NA,NA,NA,NA,NA,NA,NA,NA,NA,NA,NA,NA,NA,NA,NA,NA,NA,NA,NA,NA,NA,NA,NA,,,,NA
image-keyboard-response,109,161464,0.0-4.0-1.47,mdcs9lhvqatu1fr,0,Windows,Chrome,584.9399999715388,_faces/BM16_H_X.jpg,NA,,,emotionRatingFaceWindow,NA,NA,NA,81,3,0,surprised,47,BM16_H_X,BM16,B,M,H,X,0,,NA,,,,,,,NA,NA,NA,NA,NA,NA,NA,NA,NA,NA,NA,NA,NA,NA,NA,NA,NA,NA,NA,NA,NA,NA,NA,NA,NA,NA,NA,NA,NA,NA,NA,NA,NA,NA,NA,NA,NA,NA,NA,NA,NA,NA,NA,NA,NA,NA,NA,NA,NA,NA,NA,NA,NA,NA,NA,NA,NA,NA,NA,NA,NA,NA,NA,NA,NA,NA,NA,NA,NA,NA,NA,NA,NA,NA,NA,NA,NA,NA,NA,NA,NA,NA,NA,NA,NA,NA,NA,NA,NA,NA,NA,NA,,,,NA
html-keyboard-response,110,162466,0.0-4.0-0.48,mdcs9lhvqatu1fr,0,Windows,Chrome,NA,+,NA,,,fixation,NA,NA,NA,NA,NA,NA,,NA,,,,,,,NA,,NA,,,,,,,NA,NA,NA,NA,NA,NA,NA,NA,NA,NA,NA,NA,NA,NA,NA,NA,NA,NA,NA,NA,NA,NA,NA,NA,NA,NA,NA,NA,NA,NA,NA,NA,NA,NA,NA,NA,NA,NA,NA,NA,NA,NA,NA,NA,NA,NA,NA,NA,NA,NA,NA,NA,NA,NA,NA,NA,NA,NA,NA,NA,NA,NA,NA,NA,NA,NA,NA,NA,NA,NA,NA,NA,NA,NA,NA,NA,NA,NA,NA,NA,NA,NA,NA,NA,NA,NA,NA,NA,NA,NA,NA,NA,,,,NA
image-keyboard-response,111,163033,0.0-4.0-1.48,mdcs9lhvqatu1fr,0,Windows,Chrome,565.4750000685453,_faces/HF04_S_U.jpg,NA,,,emotionRatingFaceWindow,NA,NA,NA,81,3,0,surprised,48,HF04_S_U,HF04,H,F,S,U,0,,NA,,,,,,,NA,NA,NA,NA,NA,NA,NA,NA,NA,NA,NA,NA,NA,NA,NA,NA,NA,NA,NA,NA,NA,NA,NA,NA,NA,NA,NA,NA,NA,NA,NA,NA,NA,NA,NA,NA,NA,NA,NA,NA,NA,NA,NA,NA,NA,NA,NA,NA,NA,NA,NA,NA,NA,NA,NA,NA,NA,NA,NA,NA,NA,NA,NA,NA,NA,NA,NA,NA,NA,NA,NA,NA,NA,NA,NA,NA,NA,NA,NA,NA,NA,NA,NA,NA,NA,NA,NA,NA,NA,NA,NA,NA,,,,NA
html-keyboard-response,112,164035,0.0-4.0-0.49,mdcs9lhvqatu1fr,0,Windows,Chrome,NA,+,NA,,,fixation,NA,NA,NA,NA,NA,NA,,NA,,,,,,,NA,,NA,,,,,,,NA,NA,NA,NA,NA,NA,NA,NA,NA,NA,NA,NA,NA,NA,NA,NA,NA,NA,NA,NA,NA,NA,NA,NA,NA,NA,NA,NA,NA,NA,NA,NA,NA,NA,NA,NA,NA,NA,NA,NA,NA,NA,NA,NA,NA,NA,NA,NA,NA,NA,NA,NA,NA,NA,NA,NA,NA,NA,NA,NA,NA,NA,NA,NA,NA,NA,NA,NA,NA,NA,NA,NA,NA,NA,NA,NA,NA,NA,NA,NA,NA,NA,NA,NA,NA,NA,NA,NA,NA,NA,NA,NA,,,,NA
image-keyboard-response,113,164827,0.0-4.0-1.49,mdcs9lhvqatu1fr,0,Windows,Chrome,789.2099999589846,_faces/HF09_D_X.jpg,NA,,,emotionRatingFaceWindow,NA,NA,NA,80,3,0,surprised,49,HF09_D_X,HF09,H,F,D,X,1,,NA,,,,,,,NA,NA,NA,NA,NA,NA,NA,NA,NA,NA,NA,NA,NA,NA,NA,NA,NA,NA,NA,NA,NA,NA,NA,NA,NA,NA,NA,NA,NA,NA,NA,NA,NA,NA,NA,NA,NA,NA,NA,NA,NA,NA,NA,NA,NA,NA,NA,NA,NA,NA,NA,NA,NA,NA,NA,NA,NA,NA,NA,NA,NA,NA,NA,NA,NA,NA,NA,NA,NA,NA,NA,NA,NA,NA,NA,NA,NA,NA,NA,NA,NA,NA,NA,NA,NA,NA,NA,NA,NA,NA,NA,NA,,,,NA
html-keyboard-response,114,165828,0.0-4.0-0.50,mdcs9lhvqatu1fr,0,Windows,Chrome,NA,+,NA,,,fixation,NA,NA,NA,NA,NA,NA,,NA,,,,,,,NA,,NA,,,,,,,NA,NA,NA,NA,NA,NA,NA,NA,NA,NA,NA,NA,NA,NA,NA,NA,NA,NA,NA,NA,NA,NA,NA,NA,NA,NA,NA,NA,NA,NA,NA,NA,NA,NA,NA,NA,NA,NA,NA,NA,NA,NA,NA,NA,NA,NA,NA,NA,NA,NA,NA,NA,NA,NA,NA,NA,NA,NA,NA,NA,NA,NA,NA,NA,NA,NA,NA,NA,NA,NA,NA,NA,NA,NA,NA,NA,NA,NA,NA,NA,NA,NA,NA,NA,NA,NA,NA,NA,NA,NA,NA,NA,,,,NA
image-keyboard-response,115,166337,0.0-4.0-1.50,mdcs9lhvqatu1fr,0,Windows,Chrome,507.3750000447035,_faces/BF10_D_X.jpg,NA,,,emotionRatingFaceWindow,NA,NA,NA,80,3,0,surprised,50,BF10_D_X,BF10,B,F,D,X,1,,NA,,,,,,,NA,NA,NA,NA,NA,NA,NA,NA,NA,NA,NA,NA,NA,NA,NA,NA,NA,NA,NA,NA,NA,NA,NA,NA,NA,NA,NA,NA,NA,NA,NA,NA,NA,NA,NA,NA,NA,NA,NA,NA,NA,NA,NA,NA,NA,NA,NA,NA,NA,NA,NA,NA,NA,NA,NA,NA,NA,NA,NA,NA,NA,NA,NA,NA,NA,NA,NA,NA,NA,NA,NA,NA,NA,NA,NA,NA,NA,NA,NA,NA,NA,NA,NA,NA,NA,NA,NA,NA,NA,NA,NA,NA,,,,NA
html-keyboard-response,116,167341,0.0-4.0-0.51,mdcs9lhvqatu1fr,0,Windows,Chrome,NA,+,NA,,,fixation,NA,NA,NA,NA,NA,NA,,NA,,,,,,,NA,,NA,,,,,,,NA,NA,NA,NA,NA,NA,NA,NA,NA,NA,NA,NA,NA,NA,NA,NA,NA,NA,NA,NA,NA,NA,NA,NA,NA,NA,NA,NA,NA,NA,NA,NA,NA,NA,NA,NA,NA,NA,NA,NA,NA,NA,NA,NA,NA,NA,NA,NA,NA,NA,NA,NA,NA,NA,NA,NA,NA,NA,NA,NA,NA,NA,NA,NA,NA,NA,NA,NA,NA,NA,NA,NA,NA,NA,NA,NA,NA,NA,NA,NA,NA,NA,NA,NA,NA,NA,NA,NA,NA,NA,NA,NA,,,,NA
image-keyboard-response,117,167826,0.0-4.0-1.51,mdcs9lhvqatu1fr,0,Windows,Chrome,481.64000001270324,_faces/BM17_R_X.jpg,NA,,,emotionRatingFaceWindow,NA,NA,NA,81,3,0,surprised,51,BM17_R_X,BM17,B,M,R,X,0,,NA,,,,,,,NA,NA,NA,NA,NA,NA,NA,NA,NA,NA,NA,NA,NA,NA,NA,NA,NA,NA,NA,NA,NA,NA,NA,NA,NA,NA,NA,NA,NA,NA,NA,NA,NA,NA,NA,NA,NA,NA,NA,NA,NA,NA,NA,NA,NA,NA,NA,NA,NA,NA,NA,NA,NA,NA,NA,NA,NA,NA,NA,NA,NA,NA,NA,NA,NA,NA,NA,NA,NA,NA,NA,NA,NA,NA,NA,NA,NA,NA,NA,NA,NA,NA,NA,NA,NA,NA,NA,NA,NA,NA,NA,NA,,,,NA
html-keyboard-response,118,168829,0.0-4.0-0.52,mdcs9lhvqatu1fr,0,Windows,Chrome,NA,+,NA,,,fixation,NA,NA,NA,NA,NA,NA,,NA,,,,,,,NA,,NA,,,,,,,NA,NA,NA,NA,NA,NA,NA,NA,NA,NA,NA,NA,NA,NA,NA,NA,NA,NA,NA,NA,NA,NA,NA,NA,NA,NA,NA,NA,NA,NA,NA,NA,NA,NA,NA,NA,NA,NA,NA,NA,NA,NA,NA,NA,NA,NA,NA,NA,NA,NA,NA,NA,NA,NA,NA,NA,NA,NA,NA,NA,NA,NA,NA,NA,NA,NA,NA,NA,NA,NA,NA,NA,NA,NA,NA,NA,NA,NA,NA,NA,NA,NA,NA,NA,NA,NA,NA,NA,NA,NA,NA,NA,,,,NA
image-keyboard-response,119,169706,0.0-4.0-1.52,mdcs9lhvqatu1fr,0,Windows,Chrome,873.9599999971688,_faces/WF05_S_L.jpg,NA,,,emotionRatingFaceWindow,NA,NA,NA,81,3,0,surprised,52,WF05_S_L,WF05,W,F,S,L,0,,NA,,,,,,,NA,NA,NA,NA,NA,NA,NA,NA,NA,NA,NA,NA,NA,NA,NA,NA,NA,NA,NA,NA,NA,NA,NA,NA,NA,NA,NA,NA,NA,NA,NA,NA,NA,NA,NA,NA,NA,NA,NA,NA,NA,NA,NA,NA,NA,NA,NA,NA,NA,NA,NA,NA,NA,NA,NA,NA,NA,NA,NA,NA,NA,NA,NA,NA,NA,NA,NA,NA,NA,NA,NA,NA,NA,NA,NA,NA,NA,NA,NA,NA,NA,NA,NA,NA,NA,NA,NA,NA,NA,NA,NA,NA,,,,NA
html-keyboard-response,120,170708,0.0-4.0-0.53,mdcs9lhvqatu1fr,0,Windows,Chrome,NA,+,NA,,,fixation,NA,NA,NA,NA,NA,NA,,NA,,,,,,,NA,,NA,,,,,,,NA,NA,NA,NA,NA,NA,NA,NA,NA,NA,NA,NA,NA,NA,NA,NA,NA,NA,NA,NA,NA,NA,NA,NA,NA,NA,NA,NA,NA,NA,NA,NA,NA,NA,NA,NA,NA,NA,NA,NA,NA,NA,NA,NA,NA,NA,NA,NA,NA,NA,NA,NA,NA,NA,NA,NA,NA,NA,NA,NA,NA,NA,NA,NA,NA,NA,NA,NA,NA,NA,NA,NA,NA,NA,NA,NA,NA,NA,NA,NA,NA,NA,NA,NA,NA,NA,NA,NA,NA,NA,NA,NA,,,,NA
image-keyboard-response,121,171250,0.0-4.0-1.53,mdcs9lhvqatu1fr,0,Windows,Chrome,538.8899999670684,_faces/AM11_A_X.jpg,NA,,,emotionRatingFaceWindow,NA,NA,NA,81,3,0,surprised,53,AM11_A_X,AM11,A,M,A,X,0,,NA,,,,,,,NA,NA,NA,NA,NA,NA,NA,NA,NA,NA,NA,NA,NA,NA,NA,NA,NA,NA,NA,NA,NA,NA,NA,NA,NA,NA,NA,NA,NA,NA,NA,NA,NA,NA,NA,NA,NA,NA,NA,NA,NA,NA,NA,NA,NA,NA,NA,NA,NA,NA,NA,NA,NA,NA,NA,NA,NA,NA,NA,NA,NA,NA,NA,NA,NA,NA,NA,NA,NA,NA,NA,NA,NA,NA,NA,NA,NA,NA,NA,NA,NA,NA,NA,NA,NA,NA,NA,NA,NA,NA,NA,NA,,,,NA
html-button-response,122,177161,0.0-5.0-0.0,mdcs9lhvqatu1fr,0,Windows,Chrome,5908.799999975599,"<p>This round, you will rate whether each face looks <b>happy</b> or not.</p><p>If the face looks <b>happy</b>, press the letter <b>P</b>. If the face does <b>NOT</b> look happy, press the letter <b>Q</b>.</p><p>Please respond as quickly and accurately as possible when you see each face appear.</p><p>Click continue when you are ready to start this round.</p>",0,,,,NA,NA,NA,NA,NA,NA,,NA,,,,,,,NA,,NA,,,,,,,NA,NA,NA,NA,NA,NA,NA,NA,NA,NA,NA,NA,NA,NA,NA,NA,NA,NA,NA,NA,NA,NA,NA,NA,NA,NA,NA,NA,NA,NA,NA,NA,NA,NA,NA,NA,NA,NA,NA,NA,NA,NA,NA,NA,NA,NA,NA,NA,NA,NA,NA,NA,NA,NA,NA,NA,NA,NA,NA,NA,NA,NA,NA,NA,NA,NA,NA,NA,NA,NA,NA,NA,NA,NA,NA,NA,NA,NA,NA,NA,NA,NA,NA,NA,NA,NA,NA,NA,NA,NA,NA,NA,,,,NA
survey-multi-choice,123,179813,0.0-5.0-1.0,mdcs9lhvqatu1fr,0,Windows,Chrome,2149.8300000093877,,NA,"{""CheckEmotionRating"":""happy""}",[0],instructionChecks,TRUE,NA,NA,NA,NA,NA,,NA,,,,,,,NA,,NA,,,,,,,NA,NA,NA,NA,NA,NA,NA,NA,NA,NA,NA,NA,NA,NA,NA,NA,NA,NA,NA,NA,NA,NA,NA,NA,NA,NA,NA,NA,NA,NA,NA,NA,NA,NA,NA,NA,NA,NA,NA,NA,NA,NA,NA,NA,NA,NA,NA,NA,NA,NA,NA,NA,NA,NA,NA,NA,NA,NA,NA,NA,NA,NA,NA,NA,NA,NA,NA,NA,NA,NA,NA,NA,NA,NA,NA,NA,NA,NA,NA,NA,NA,NA,NA,NA,NA,NA,NA,NA,NA,NA,NA,NA,,,,NA
survey-html-form,124,183880,0.0-5.0-2.0,mdcs9lhvqatu1fr,0,Windows,Chrome,3563.1150000263005,,NA,"{""checkKeyYes"":""p"",""checkKeyNo"":""q""}",,instructionChecks,NA,TRUE,TRUE,NA,NA,NA,,NA,,,,,,,NA,,NA,,,,,,,NA,NA,NA,NA,NA,NA,NA,NA,NA,NA,NA,NA,NA,NA,NA,NA,NA,NA,NA,NA,NA,NA,NA,NA,NA,NA,NA,NA,NA,NA,NA,NA,NA,NA,NA,NA,NA,NA,NA,NA,NA,NA,NA,NA,NA,NA,NA,NA,NA,NA,NA,NA,NA,NA,NA,NA,NA,NA,NA,NA,NA,NA,NA,NA,NA,NA,NA,NA,NA,NA,NA,NA,NA,NA,NA,NA,NA,NA,NA,NA,NA,NA,NA,NA,NA,NA,NA,NA,NA,NA,NA,NA,,,,NA
html-keyboard-response,125,185385,0.0-6.0-0.0,mdcs9lhvqatu1fr,0,Windows,Chrome,NA,+,NA,,,fixation,NA,NA,NA,NA,NA,NA,,NA,,,,,,,NA,,NA,,,,,,,NA,NA,NA,NA,NA,NA,NA,NA,NA,NA,NA,NA,NA,NA,NA,NA,NA,NA,NA,NA,NA,NA,NA,NA,NA,NA,NA,NA,NA,NA,NA,NA,NA,NA,NA,NA,NA,NA,NA,NA,NA,NA,NA,NA,NA,NA,NA,NA,NA,NA,NA,NA,NA,NA,NA,NA,NA,NA,NA,NA,NA,NA,NA,NA,NA,NA,NA,NA,NA,NA,NA,NA,NA,NA,NA,NA,NA,NA,NA,NA,NA,NA,NA,NA,NA,NA,NA,NA,NA,NA,NA,NA,,,,NA
image-keyboard-response,126,185968,0.0-6.0-1.0,mdcs9lhvqatu1fr,0,Windows,Chrome,580.904999980703,_faces/AM04_D_L.jpg,NA,,,emotionRatingFaceWindow,NA,NA,NA,81,6,1,happy,54,AM04_D_L,AM04,A,M,D,L,0,,NA,,,,,,,NA,NA,NA,NA,NA,NA,NA,NA,NA,NA,NA,NA,NA,NA,NA,NA,NA,NA,NA,NA,NA,NA,NA,NA,NA,NA,NA,NA,NA,NA,NA,NA,NA,NA,NA,NA,NA,NA,NA,NA,NA,NA,NA,NA,NA,NA,NA,NA,NA,NA,NA,NA,NA,NA,NA,NA,NA,NA,NA,NA,NA,NA,NA,NA,NA,NA,NA,NA,NA,NA,NA,NA,NA,NA,NA,NA,NA,NA,NA,NA,NA,NA,NA,NA,NA,NA,NA,NA,NA,NA,NA,NA,,,,NA
html-keyboard-response,127,186971,0.0-6.0-0.1,mdcs9lhvqatu1fr,0,Windows,Chrome,NA,+,NA,,,fixation,NA,NA,NA,NA,NA,NA,,NA,,,,,,,NA,,NA,,,,,,,NA,NA,NA,NA,NA,NA,NA,NA,NA,NA,NA,NA,NA,NA,NA,NA,NA,NA,NA,NA,NA,NA,NA,NA,NA,NA,NA,NA,NA,NA,NA,NA,NA,NA,NA,NA,NA,NA,NA,NA,NA,NA,NA,NA,NA,NA,NA,NA,NA,NA,NA,NA,NA,NA,NA,NA,NA,NA,NA,NA,NA,NA,NA,NA,NA,NA,NA,NA,NA,NA,NA,NA,NA,NA,NA,NA,NA,NA,NA,NA,NA,NA,NA,NA,NA,NA,NA,NA,NA,NA,NA,NA,,,,NA
image-keyboard-response,128,187507,0.0-6.0-1.1,mdcs9lhvqatu1fr,0,Windows,Chrome,534.2049999162555,_faces/BF15_S_L.jpg,NA,,,emotionRatingFaceWindow,NA,NA,NA,81,6,1,happy,55,BF15_S_L,BF15,B,F,S,L,0,,NA,,,,,,,NA,NA,NA,NA,NA,NA,NA,NA,NA,NA,NA,NA,NA,NA,NA,NA,NA,NA,NA,NA,NA,NA,NA,NA,NA,NA,NA,NA,NA,NA,NA,NA,NA,NA,NA,NA,NA,NA,NA,NA,NA,NA,NA,NA,NA,NA,NA,NA,NA,NA,NA,NA,NA,NA,NA,NA,NA,NA,NA,NA,NA,NA,NA,NA,NA,NA,NA,NA,NA,NA,NA,NA,NA,NA,NA,NA,NA,NA,NA,NA,NA,NA,NA,NA,NA,NA,NA,NA,NA,NA,NA,NA,,,,NA
html-keyboard-response,129,188510,0.0-6.0-0.2,mdcs9lhvqatu1fr,0,Windows,Chrome,NA,+,NA,,,fixation,NA,NA,NA,NA,NA,NA,,NA,,,,,,,NA,,NA,,,,,,,NA,NA,NA,NA,NA,NA,NA,NA,NA,NA,NA,NA,NA,NA,NA,NA,NA,NA,NA,NA,NA,NA,NA,NA,NA,NA,NA,NA,NA,NA,NA,NA,NA,NA,NA,NA,NA,NA,NA,NA,NA,NA,NA,NA,NA,NA,NA,NA,NA,NA,NA,NA,NA,NA,NA,NA,NA,NA,NA,NA,NA,NA,NA,NA,NA,NA,NA,NA,NA,NA,NA,NA,NA,NA,NA,NA,NA,NA,NA,NA,NA,NA,NA,NA,NA,NA,NA,NA,NA,NA,NA,NA,,,,NA
image-keyboard-response,130,189138,0.0-6.0-1.2,mdcs9lhvqatu1fr,0,Windows,Chrome,626.9750000210479,_faces/BM17_D_X.jpg,NA,,,emotionRatingFaceWindow,NA,NA,NA,81,6,1,happy,56,BM17_D_X,BM17,B,M,D,X,0,,NA,,,,,,,NA,NA,NA,NA,NA,NA,NA,NA,NA,NA,NA,NA,NA,NA,NA,NA,NA,NA,NA,NA,NA,NA,NA,NA,NA,NA,NA,NA,NA,NA,NA,NA,NA,NA,NA,NA,NA,NA,NA,NA,NA,NA,NA,NA,NA,NA,NA,NA,NA,NA,NA,NA,NA,NA,NA,NA,NA,NA,NA,NA,NA,NA,NA,NA,NA,NA,NA,NA,NA,NA,NA,NA,NA,NA,NA,NA,NA,NA,NA,NA,NA,NA,NA,NA,NA,NA,NA,NA,NA,NA,NA,NA,,,,NA
html-keyboard-response,131,190140,0.0-6.0-0.3,mdcs9lhvqatu1fr,0,Windows,Chrome,NA,+,NA,,,fixation,NA,NA,NA,NA,NA,NA,,NA,,,,,,,NA,,NA,,,,,,,NA,NA,NA,NA,NA,NA,NA,NA,NA,NA,NA,NA,NA,NA,NA,NA,NA,NA,NA,NA,NA,NA,NA,NA,NA,NA,NA,NA,NA,NA,NA,NA,NA,NA,NA,NA,NA,NA,NA,NA,NA,NA,NA,NA,NA,NA,NA,NA,NA,NA,NA,NA,NA,NA,NA,NA,NA,NA,NA,NA,NA,NA,NA,NA,NA,NA,NA,NA,NA,NA,NA,NA,NA,NA,NA,NA,NA,NA,NA,NA,NA,NA,NA,NA,NA,NA,NA,NA,NA,NA,NA,NA,,,,NA
image-keyboard-response,132,190826,0.0-6.0-1.3,mdcs9lhvqatu1fr,0,Windows,Chrome,683.9499999769032,_faces/HF04_F_U.jpg,NA,,,emotionRatingFaceWindow,NA,NA,NA,81,6,1,happy,57,HF04_F_U,HF04,H,F,F,U,0,,NA,,,,,,,NA,NA,NA,NA,NA,NA,NA,NA,NA,NA,NA,NA,NA,NA,NA,NA,NA,NA,NA,NA,NA,NA,NA,NA,NA,NA,NA,NA,NA,NA,NA,NA,NA,NA,NA,NA,NA,NA,NA,NA,NA,NA,NA,NA,NA,NA,NA,NA,NA,NA,NA,NA,NA,NA,NA,NA,NA,NA,NA,NA,NA,NA,NA,NA,NA,NA,NA,NA,NA,NA,NA,NA,NA,NA,NA,NA,NA,NA,NA,NA,NA,NA,NA,NA,NA,NA,NA,NA,NA,NA,NA,NA,,,,NA
html-keyboard-response,133,191828,0.0-6.0-0.4,mdcs9lhvqatu1fr,0,Windows,Chrome,NA,+,NA,,,fixation,NA,NA,NA,NA,NA,NA,,NA,,,,,,,NA,,NA,,,,,,,NA,NA,NA,NA,NA,NA,NA,NA,NA,NA,NA,NA,NA,NA,NA,NA,NA,NA,NA,NA,NA,NA,NA,NA,NA,NA,NA,NA,NA,NA,NA,NA,NA,NA,NA,NA,NA,NA,NA,NA,NA,NA,NA,NA,NA,NA,NA,NA,NA,NA,NA,NA,NA,NA,NA,NA,NA,NA,NA,NA,NA,NA,NA,NA,NA,NA,NA,NA,NA,NA,NA,NA,NA,NA,NA,NA,NA,NA,NA,NA,NA,NA,NA,NA,NA,NA,NA,NA,NA,NA,NA,NA,,,,NA
image-keyboard-response,134,192401,0.0-6.0-1.4,mdcs9lhvqatu1fr,0,Windows,Chrome,570.3200000571087,_faces/BM16_A_U.jpg,NA,,,emotionRatingFaceWindow,NA,NA,NA,81,6,1,happy,58,BM16_A_U,BM16,B,M,A,U,0,,NA,,,,,,,NA,NA,NA,NA,NA,NA,NA,NA,NA,NA,NA,NA,NA,NA,NA,NA,NA,NA,NA,NA,NA,NA,NA,NA,NA,NA,NA,NA,NA,NA,NA,NA,NA,NA,NA,NA,NA,NA,NA,NA,NA,NA,NA,NA,NA,NA,NA,NA,NA,NA,NA,NA,NA,NA,NA,NA,NA,NA,NA,NA,NA,NA,NA,NA,NA,NA,NA,NA,NA,NA,NA,NA,NA,NA,NA,NA,NA,NA,NA,NA,NA,NA,NA,NA,NA,NA,NA,NA,NA,NA,NA,NA,,,,NA
html-keyboard-response,135,193405,0.0-6.0-0.5,mdcs9lhvqatu1fr,0,Windows,Chrome,NA,+,NA,,,fixation,NA,NA,NA,NA,NA,NA,,NA,,,,,,,NA,,NA,,,,,,,NA,NA,NA,NA,NA,NA,NA,NA,NA,NA,NA,NA,NA,NA,NA,NA,NA,NA,NA,NA,NA,NA,NA,NA,NA,NA,NA,NA,NA,NA,NA,NA,NA,NA,NA,NA,NA,NA,NA,NA,NA,NA,NA,NA,NA,NA,NA,NA,NA,NA,NA,NA,NA,NA,NA,NA,NA,NA,NA,NA,NA,NA,NA,NA,NA,NA,NA,NA,NA,NA,NA,NA,NA,NA,NA,NA,NA,NA,NA,NA,NA,NA,NA,NA,NA,NA,NA,NA,NA,NA,NA,NA,,,,NA
image-keyboard-response,136,193985,0.0-6.0-1.5,mdcs9lhvqatu1fr,0,Windows,Chrome,578.2899999758229,_faces/WM13_R_X.jpg,NA,,,emotionRatingFaceWindow,NA,NA,NA,81,6,1,happy,59,WM13_R_X,WM13,W,M,R,X,0,,NA,,,,,,,NA,NA,NA,NA,NA,NA,NA,NA,NA,NA,NA,NA,NA,NA,NA,NA,NA,NA,NA,NA,NA,NA,NA,NA,NA,NA,NA,NA,NA,NA,NA,NA,NA,NA,NA,NA,NA,NA,NA,NA,NA,NA,NA,NA,NA,NA,NA,NA,NA,NA,NA,NA,NA,NA,NA,NA,NA,NA,NA,NA,NA,NA,NA,NA,NA,NA,NA,NA,NA,NA,NA,NA,NA,NA,NA,NA,NA,NA,NA,NA,NA,NA,NA,NA,NA,NA,NA,NA,NA,NA,NA,NA,,,,NA
html-keyboard-response,137,194986,0.0-6.0-0.6,mdcs9lhvqatu1fr,0,Windows,Chrome,NA,+,NA,,,fixation,NA,NA,NA,NA,NA,NA,,NA,,,,,,,NA,,NA,,,,,,,NA,NA,NA,NA,NA,NA,NA,NA,NA,NA,NA,NA,NA,NA,NA,NA,NA,NA,NA,NA,NA,NA,NA,NA,NA,NA,NA,NA,NA,NA,NA,NA,NA,NA,NA,NA,NA,NA,NA,NA,NA,NA,NA,NA,NA,NA,NA,NA,NA,NA,NA,NA,NA,NA,NA,NA,NA,NA,NA,NA,NA,NA,NA,NA,NA,NA,NA,NA,NA,NA,NA,NA,NA,NA,NA,NA,NA,NA,NA,NA,NA,NA,NA,NA,NA,NA,NA,NA,NA,NA,NA,NA,,,,NA
image-keyboard-response,138,195544,0.0-6.0-1.6,mdcs9lhvqatu1fr,0,Windows,Chrome,556.599999894388,_faces/HM08_S_X.jpg,NA,,,emotionRatingFaceWindow,NA,NA,NA,81,6,1,happy,60,HM08_S_X,HM08,H,M,S,X,0,,NA,,,,,,,NA,NA,NA,NA,NA,NA,NA,NA,NA,NA,NA,NA,NA,NA,NA,NA,NA,NA,NA,NA,NA,NA,NA,NA,NA,NA,NA,NA,NA,NA,NA,NA,NA,NA,NA,NA,NA,NA,NA,NA,NA,NA,NA,NA,NA,NA,NA,NA,NA,NA,NA,NA,NA,NA,NA,NA,NA,NA,NA,NA,NA,NA,NA,NA,NA,NA,NA,NA,NA,NA,NA,NA,NA,NA,NA,NA,NA,NA,NA,NA,NA,NA,NA,NA,NA,NA,NA,NA,NA,NA,NA,NA,,,,NA
html-keyboard-response,139,196546,0.0-6.0-0.7,mdcs9lhvqatu1fr,0,Windows,Chrome,NA,+,NA,,,fixation,NA,NA,NA,NA,NA,NA,,NA,,,,,,,NA,,NA,,,,,,,NA,NA,NA,NA,NA,NA,NA,NA,NA,NA,NA,NA,NA,NA,NA,NA,NA,NA,NA,NA,NA,NA,NA,NA,NA,NA,NA,NA,NA,NA,NA,NA,NA,NA,NA,NA,NA,NA,NA,NA,NA,NA,NA,NA,NA,NA,NA,NA,NA,NA,NA,NA,NA,NA,NA,NA,NA,NA,NA,NA,NA,NA,NA,NA,NA,NA,NA,NA,NA,NA,NA,NA,NA,NA,NA,NA,NA,NA,NA,NA,NA,NA,NA,NA,NA,NA,NA,NA,NA,NA,NA,NA,,,,NA
image-keyboard-response,140,197113,0.0-6.0-1.7,mdcs9lhvqatu1fr,0,Windows,Chrome,565.9450000384822,_faces/BF15_S_U.jpg,NA,,,emotionRatingFaceWindow,NA,NA,NA,81,6,1,happy,61,BF15_S_U,BF15,B,F,S,U,0,,NA,,,,,,,NA,NA,NA,NA,NA,NA,NA,NA,NA,NA,NA,NA,NA,NA,NA,NA,NA,NA,NA,NA,NA,NA,NA,NA,NA,NA,NA,NA,NA,NA,NA,NA,NA,NA,NA,NA,NA,NA,NA,NA,NA,NA,NA,NA,NA,NA,NA,NA,NA,NA,NA,NA,NA,NA,NA,NA,NA,NA,NA,NA,NA,NA,NA,NA,NA,NA,NA,NA,NA,NA,NA,NA,NA,NA,NA,NA,NA,NA,NA,NA,NA,NA,NA,NA,NA,NA,NA,NA,NA,NA,NA,NA,,,,NA
html-keyboard-response,141,198115,0.0-6.0-0.8,mdcs9lhvqatu1fr,0,Windows,Chrome,NA,+,NA,,,fixation,NA,NA,NA,NA,NA,NA,,NA,,,,,,,NA,,NA,,,,,,,NA,NA,NA,NA,NA,NA,NA,NA,NA,NA,NA,NA,NA,NA,NA,NA,NA,NA,NA,NA,NA,NA,NA,NA,NA,NA,NA,NA,NA,NA,NA,NA,NA,NA,NA,NA,NA,NA,NA,NA,NA,NA,NA,NA,NA,NA,NA,NA,NA,NA,NA,NA,NA,NA,NA,NA,NA,NA,NA,NA,NA,NA,NA,NA,NA,NA,NA,NA,NA,NA,NA,NA,NA,NA,NA,NA,NA,NA,NA,NA,NA,NA,NA,NA,NA,NA,NA,NA,NA,NA,NA,NA,,,,NA
image-keyboard-response,142,198642,0.0-6.0-1.8,mdcs9lhvqatu1fr,0,Windows,Chrome,526.4200000092387,_faces/AM04_D_X.jpg,NA,,,emotionRatingFaceWindow,NA,NA,NA,81,6,1,happy,62,AM04_D_X,AM04,A,M,D,X,0,,NA,,,,,,,NA,NA,NA,NA,NA,NA,NA,NA,NA,NA,NA,NA,NA,NA,NA,NA,NA,NA,NA,NA,NA,NA,NA,NA,NA,NA,NA,NA,NA,NA,NA,NA,NA,NA,NA,NA,NA,NA,NA,NA,NA,NA,NA,NA,NA,NA,NA,NA,NA,NA,NA,NA,NA,NA,NA,NA,NA,NA,NA,NA,NA,NA,NA,NA,NA,NA,NA,NA,NA,NA,NA,NA,NA,NA,NA,NA,NA,NA,NA,NA,NA,NA,NA,NA,NA,NA,NA,NA,NA,NA,NA,NA,,,,NA
html-keyboard-response,143,199644,0.0-6.0-0.9,mdcs9lhvqatu1fr,0,Windows,Chrome,NA,+,NA,,,fixation,NA,NA,NA,NA,NA,NA,,NA,,,,,,,NA,,NA,,,,,,,NA,NA,NA,NA,NA,NA,NA,NA,NA,NA,NA,NA,NA,NA,NA,NA,NA,NA,NA,NA,NA,NA,NA,NA,NA,NA,NA,NA,NA,NA,NA,NA,NA,NA,NA,NA,NA,NA,NA,NA,NA,NA,NA,NA,NA,NA,NA,NA,NA,NA,NA,NA,NA,NA,NA,NA,NA,NA,NA,NA,NA,NA,NA,NA,NA,NA,NA,NA,NA,NA,NA,NA,NA,NA,NA,NA,NA,NA,NA,NA,NA,NA,NA,NA,NA,NA,NA,NA,NA,NA,NA,NA,,,,NA
image-keyboard-response,144,200434,0.0-6.0-1.9,mdcs9lhvqatu1fr,0,Windows,Chrome,788.7649999465793,_faces/HM09_A_U.jpg,NA,,,emotionRatingFaceWindow,NA,NA,NA,81,6,1,happy,63,HM09_A_U,HM09,H,M,A,U,0,,NA,,,,,,,NA,NA,NA,NA,NA,NA,NA,NA,NA,NA,NA,NA,NA,NA,NA,NA,NA,NA,NA,NA,NA,NA,NA,NA,NA,NA,NA,NA,NA,NA,NA,NA,NA,NA,NA,NA,NA,NA,NA,NA,NA,NA,NA,NA,NA,NA,NA,NA,NA,NA,NA,NA,NA,NA,NA,NA,NA,NA,NA,NA,NA,NA,NA,NA,NA,NA,NA,NA,NA,NA,NA,NA,NA,NA,NA,NA,NA,NA,NA,NA,NA,NA,NA,NA,NA,NA,NA,NA,NA,NA,NA,NA,,,,NA
html-keyboard-response,145,201436,0.0-6.0-0.10,mdcs9lhvqatu1fr,0,Windows,Chrome,NA,+,NA,,,fixation,NA,NA,NA,NA,NA,NA,,NA,,,,,,,NA,,NA,,,,,,,NA,NA,NA,NA,NA,NA,NA,NA,NA,NA,NA,NA,NA,NA,NA,NA,NA,NA,NA,NA,NA,NA,NA,NA,NA,NA,NA,NA,NA,NA,NA,NA,NA,NA,NA,NA,NA,NA,NA,NA,NA,NA,NA,NA,NA,NA,NA,NA,NA,NA,NA,NA,NA,NA,NA,NA,NA,NA,NA,NA,NA,NA,NA,NA,NA,NA,NA,NA,NA,NA,NA,NA,NA,NA,NA,NA,NA,NA,NA,NA,NA,NA,NA,NA,NA,NA,NA,NA,NA,NA,NA,NA,,,,NA
image-keyboard-response,146,202089,0.0-6.0-1.10,mdcs9lhvqatu1fr,0,Windows,Chrome,649.974999949336,_faces/WF02_D_U.jpg,NA,,,emotionRatingFaceWindow,NA,NA,NA,81,6,1,happy,64,WF02_D_U,WF02,W,F,D,U,0,,NA,,,,,,,NA,NA,NA,NA,NA,NA,NA,NA,NA,NA,NA,NA,NA,NA,NA,NA,NA,NA,NA,NA,NA,NA,NA,NA,NA,NA,NA,NA,NA,NA,NA,NA,NA,NA,NA,NA,NA,NA,NA,NA,NA,NA,NA,NA,NA,NA,NA,NA,NA,NA,NA,NA,NA,NA,NA,NA,NA,NA,NA,NA,NA,NA,NA,NA,NA,NA,NA,NA,NA,NA,NA,NA,NA,NA,NA,NA,NA,NA,NA,NA,NA,NA,NA,NA,NA,NA,NA,NA,NA,NA,NA,NA,,,,NA
html-keyboard-response,147,203106,0.0-6.0-0.11,mdcs9lhvqatu1fr,0,Windows,Chrome,NA,+,NA,,,fixation,NA,NA,NA,NA,NA,NA,,NA,,,,,,,NA,,NA,,,,,,,NA,NA,NA,NA,NA,NA,NA,NA,NA,NA,NA,NA,NA,NA,NA,NA,NA,NA,NA,NA,NA,NA,NA,NA,NA,NA,NA,NA,NA,NA,NA,NA,NA,NA,NA,NA,NA,NA,NA,NA,NA,NA,NA,NA,NA,NA,NA,NA,NA,NA,NA,NA,NA,NA,NA,NA,NA,NA,NA,NA,NA,NA,NA,NA,NA,NA,NA,NA,NA,NA,NA,NA,NA,NA,NA,NA,NA,NA,NA,NA,NA,NA,NA,NA,NA,NA,NA,NA,NA,NA,NA,NA,,,,NA
image-keyboard-response,148,203817,0.0-6.0-1.11,mdcs9lhvqatu1fr,0,Windows,Chrome,710.4500000132248,_faces/AF06_S_L.jpg,NA,,,emotionRatingFaceWindow,NA,NA,NA,81,6,1,happy,65,AF06_S_L,AF06,A,F,S,L,0,,NA,,,,,,,NA,NA,NA,NA,NA,NA,NA,NA,NA,NA,NA,NA,NA,NA,NA,NA,NA,NA,NA,NA,NA,NA,NA,NA,NA,NA,NA,NA,NA,NA,NA,NA,NA,NA,NA,NA,NA,NA,NA,NA,NA,NA,NA,NA,NA,NA,NA,NA,NA,NA,NA,NA,NA,NA,NA,NA,NA,NA,NA,NA,NA,NA,NA,NA,NA,NA,NA,NA,NA,NA,NA,NA,NA,NA,NA,NA,NA,NA,NA,NA,NA,NA,NA,NA,NA,NA,NA,NA,NA,NA,NA,NA,,,,NA
html-keyboard-response,149,204819,0.0-6.0-0.12,mdcs9lhvqatu1fr,0,Windows,Chrome,NA,+,NA,,,fixation,NA,NA,NA,NA,NA,NA,,NA,,,,,,,NA,,NA,,,,,,,NA,NA,NA,NA,NA,NA,NA,NA,NA,NA,NA,NA,NA,NA,NA,NA,NA,NA,NA,NA,NA,NA,NA,NA,NA,NA,NA,NA,NA,NA,NA,NA,NA,NA,NA,NA,NA,NA,NA,NA,NA,NA,NA,NA,NA,NA,NA,NA,NA,NA,NA,NA,NA,NA,NA,NA,NA,NA,NA,NA,NA,NA,NA,NA,NA,NA,NA,NA,NA,NA,NA,NA,NA,NA,NA,NA,NA,NA,NA,NA,NA,NA,NA,NA,NA,NA,NA,NA,NA,NA,NA,NA,,,,NA
image-keyboard-response,150,205554,0.0-6.0-1.12,mdcs9lhvqatu1fr,0,Windows,Chrome,733.1949999788776,_faces/AF09_A_U.jpg,NA,,,emotionRatingFaceWindow,NA,NA,NA,81,6,1,happy,66,AF09_A_U,AF09,A,F,A,U,0,,NA,,,,,,,NA,NA,NA,NA,NA,NA,NA,NA,NA,NA,NA,NA,NA,NA,NA,NA,NA,NA,NA,NA,NA,NA,NA,NA,NA,NA,NA,NA,NA,NA,NA,NA,NA,NA,NA,NA,NA,NA,NA,NA,NA,NA,NA,NA,NA,NA,NA,NA,NA,NA,NA,NA,NA,NA,NA,NA,NA,NA,NA,NA,NA,NA,NA,NA,NA,NA,NA,NA,NA,NA,NA,NA,NA,NA,NA,NA,NA,NA,NA,NA,NA,NA,NA,NA,NA,NA,NA,NA,NA,NA,NA,NA,,,,NA
html-keyboard-response,151,206556,0.0-6.0-0.13,mdcs9lhvqatu1fr,0,Windows,Chrome,NA,+,NA,,,fixation,NA,NA,NA,NA,NA,NA,,NA,,,,,,,NA,,NA,,,,,,,NA,NA,NA,NA,NA,NA,NA,NA,NA,NA,NA,NA,NA,NA,NA,NA,NA,NA,NA,NA,NA,NA,NA,NA,NA,NA,NA,NA,NA,NA,NA,NA,NA,NA,NA,NA,NA,NA,NA,NA,NA,NA,NA,NA,NA,NA,NA,NA,NA,NA,NA,NA,NA,NA,NA,NA,NA,NA,NA,NA,NA,NA,NA,NA,NA,NA,NA,NA,NA,NA,NA,NA,NA,NA,NA,NA,NA,NA,NA,NA,NA,NA,NA,NA,NA,NA,NA,NA,NA,NA,NA,NA,,,,NA
image-keyboard-response,152,207234,0.0-6.0-1.13,mdcs9lhvqatu1fr,0,Windows,Chrome,675.0900000333786,_faces/WM13_R_U.jpg,NA,,,emotionRatingFaceWindow,NA,NA,NA,81,6,1,happy,67,WM13_R_U,WM13,W,M,R,U,0,,NA,,,,,,,NA,NA,NA,NA,NA,NA,NA,NA,NA,NA,NA,NA,NA,NA,NA,NA,NA,NA,NA,NA,NA,NA,NA,NA,NA,NA,NA,NA,NA,NA,NA,NA,NA,NA,NA,NA,NA,NA,NA,NA,NA,NA,NA,NA,NA,NA,NA,NA,NA,NA,NA,NA,NA,NA,NA,NA,NA,NA,NA,NA,NA,NA,NA,NA,NA,NA,NA,NA,NA,NA,NA,NA,NA,NA,NA,NA,NA,NA,NA,NA,NA,NA,NA,NA,NA,NA,NA,NA,NA,NA,NA,NA,,,,NA
html-keyboard-response,153,208236,0.0-6.0-0.14,mdcs9lhvqatu1fr,0,Windows,Chrome,NA,+,NA,,,fixation,NA,NA,NA,NA,NA,NA,,NA,,,,,,,NA,,NA,,,,,,,NA,NA,NA,NA,NA,NA,NA,NA,NA,NA,NA,NA,NA,NA,NA,NA,NA,NA,NA,NA,NA,NA,NA,NA,NA,NA,NA,NA,NA,NA,NA,NA,NA,NA,NA,NA,NA,NA,NA,NA,NA,NA,NA,NA,NA,NA,NA,NA,NA,NA,NA,NA,NA,NA,NA,NA,NA,NA,NA,NA,NA,NA,NA,NA,NA,NA,NA,NA,NA,NA,NA,NA,NA,NA,NA,NA,NA,NA,NA,NA,NA,NA,NA,NA,NA,NA,NA,NA,NA,NA,NA,NA,,,,NA
image-keyboard-response,154,208798,0.0-6.0-1.14,mdcs9lhvqatu1fr,0,Windows,Chrome,558.1949999323115,_faces/HF05_H_U.jpg,NA,,,emotionRatingFaceWindow,NA,NA,NA,80,6,1,happy,68,HF05_H_U,HF05,H,F,H,U,1,,NA,,,,,,,NA,NA,NA,NA,NA,NA,NA,NA,NA,NA,NA,NA,NA,NA,NA,NA,NA,NA,NA,NA,NA,NA,NA,NA,NA,NA,NA,NA,NA,NA,NA,NA,NA,NA,NA,NA,NA,NA,NA,NA,NA,NA,NA,NA,NA,NA,NA,NA,NA,NA,NA,NA,NA,NA,NA,NA,NA,NA,NA,NA,NA,NA,NA,NA,NA,NA,NA,NA,NA,NA,NA,NA,NA,NA,NA,NA,NA,NA,NA,NA,NA,NA,NA,NA,NA,NA,NA,NA,NA,NA,NA,NA,,,,NA
html-keyboard-response,155,209800,0.0-6.0-0.15,mdcs9lhvqatu1fr,0,Windows,Chrome,NA,+,NA,,,fixation,NA,NA,NA,NA,NA,NA,,NA,,,,,,,NA,,NA,,,,,,,NA,NA,NA,NA,NA,NA,NA,NA,NA,NA,NA,NA,NA,NA,NA,NA,NA,NA,NA,NA,NA,NA,NA,NA,NA,NA,NA,NA,NA,NA,NA,NA,NA,NA,NA,NA,NA,NA,NA,NA,NA,NA,NA,NA,NA,NA,NA,NA,NA,NA,NA,NA,NA,NA,NA,NA,NA,NA,NA,NA,NA,NA,NA,NA,NA,NA,NA,NA,NA,NA,NA,NA,NA,NA,NA,NA,NA,NA,NA,NA,NA,NA,NA,NA,NA,NA,NA,NA,NA,NA,NA,NA,,,,NA
image-keyboard-response,156,210305,0.0-6.0-1.15,mdcs9lhvqatu1fr,0,Windows,Chrome,501.1950000189245,_faces/BM16_A_X.jpg,NA,,,emotionRatingFaceWindow,NA,NA,NA,81,6,1,happy,69,BM16_A_X,BM16,B,M,A,X,0,,NA,,,,,,,NA,NA,NA,NA,NA,NA,NA,NA,NA,NA,NA,NA,NA,NA,NA,NA,NA,NA,NA,NA,NA,NA,NA,NA,NA,NA,NA,NA,NA,NA,NA,NA,NA,NA,NA,NA,NA,NA,NA,NA,NA,NA,NA,NA,NA,NA,NA,NA,NA,NA,NA,NA,NA,NA,NA,NA,NA,NA,NA,NA,NA,NA,NA,NA,NA,NA,NA,NA,NA,NA,NA,NA,NA,NA,NA,NA,NA,NA,NA,NA,NA,NA,NA,NA,NA,NA,NA,NA,NA,NA,NA,NA,,,,NA
html-keyboard-response,157,211308,0.0-6.0-0.16,mdcs9lhvqatu1fr,0,Windows,Chrome,NA,+,NA,,,fixation,NA,NA,NA,NA,NA,NA,,NA,,,,,,,NA,,NA,,,,,,,NA,NA,NA,NA,NA,NA,NA,NA,NA,NA,NA,NA,NA,NA,NA,NA,NA,NA,NA,NA,NA,NA,NA,NA,NA,NA,NA,NA,NA,NA,NA,NA,NA,NA,NA,NA,NA,NA,NA,NA,NA,NA,NA,NA,NA,NA,NA,NA,NA,NA,NA,NA,NA,NA,NA,NA,NA,NA,NA,NA,NA,NA,NA,NA,NA,NA,NA,NA,NA,NA,NA,NA,NA,NA,NA,NA,NA,NA,NA,NA,NA,NA,NA,NA,NA,NA,NA,NA,NA,NA,NA,NA,,,,NA
image-keyboard-response,158,211930,0.0-6.0-1.16,mdcs9lhvqatu1fr,0,Windows,Chrome,619.8650000151247,_faces/HF05_H_L.jpg,NA,,,emotionRatingFaceWindow,NA,NA,NA,80,6,1,happy,70,HF05_H_L,HF05,H,F,H,L,1,,NA,,,,,,,NA,NA,NA,NA,NA,NA,NA,NA,NA,NA,NA,NA,NA,NA,NA,NA,NA,NA,NA,NA,NA,NA,NA,NA,NA,NA,NA,NA,NA,NA,NA,NA,NA,NA,NA,NA,NA,NA,NA,NA,NA,NA,NA,NA,NA,NA,NA,NA,NA,NA,NA,NA,NA,NA,NA,NA,NA,NA,NA,NA,NA,NA,NA,NA,NA,NA,NA,NA,NA,NA,NA,NA,NA,NA,NA,NA,NA,NA,NA,NA,NA,NA,NA,NA,NA,NA,NA,NA,NA,NA,NA,NA,,,,NA
html-keyboard-response,159,212934,0.0-6.0-0.17,mdcs9lhvqatu1fr,0,Windows,Chrome,NA,+,NA,,,fixation,NA,NA,NA,NA,NA,NA,,NA,,,,,,,NA,,NA,,,,,,,NA,NA,NA,NA,NA,NA,NA,NA,NA,NA,NA,NA,NA,NA,NA,NA,NA,NA,NA,NA,NA,NA,NA,NA,NA,NA,NA,NA,NA,NA,NA,NA,NA,NA,NA,NA,NA,NA,NA,NA,NA,NA,NA,NA,NA,NA,NA,NA,NA,NA,NA,NA,NA,NA,NA,NA,NA,NA,NA,NA,NA,NA,NA,NA,NA,NA,NA,NA,NA,NA,NA,NA,NA,NA,NA,NA,NA,NA,NA,NA,NA,NA,NA,NA,NA,NA,NA,NA,NA,NA,NA,NA,,,,NA
image-keyboard-response,160,213441,0.0-6.0-1.17,mdcs9lhvqatu1fr,0,Windows,Chrome,500.36499998532236,_faces/BF10_R_X.jpg,NA,,,emotionRatingFaceWindow,NA,NA,NA,81,6,1,happy,71,BF10_R_X,BF10,B,F,R,X,0,,NA,,,,,,,NA,NA,NA,NA,NA,NA,NA,NA,NA,NA,NA,NA,NA,NA,NA,NA,NA,NA,NA,NA,NA,NA,NA,NA,NA,NA,NA,NA,NA,NA,NA,NA,NA,NA,NA,NA,NA,NA,NA,NA,NA,NA,NA,NA,NA,NA,NA,NA,NA,NA,NA,NA,NA,NA,NA,NA,NA,NA,NA,NA,NA,NA,NA,NA,NA,NA,NA,NA,NA,NA,NA,NA,NA,NA,NA,NA,NA,NA,NA,NA,NA,NA,NA,NA,NA,NA,NA,NA,NA,NA,NA,NA,,,,NA
html-keyboard-response,161,214443,0.0-6.0-0.18,mdcs9lhvqatu1fr,0,Windows,Chrome,NA,+,NA,,,fixation,NA,NA,NA,NA,NA,NA,,NA,,,,,,,NA,,NA,,,,,,,NA,NA,NA,NA,NA,NA,NA,NA,NA,NA,NA,NA,NA,NA,NA,NA,NA,NA,NA,NA,NA,NA,NA,NA,NA,NA,NA,NA,NA,NA,NA,NA,NA,NA,NA,NA,NA,NA,NA,NA,NA,NA,NA,NA,NA,NA,NA,NA,NA,NA,NA,NA,NA,NA,NA,NA,NA,NA,NA,NA,NA,NA,NA,NA,NA,NA,NA,NA,NA,NA,NA,NA,NA,NA,NA,NA,NA,NA,NA,NA,NA,NA,NA,NA,NA,NA,NA,NA,NA,NA,NA,NA,,,,NA
image-keyboard-response,162,215012,0.0-6.0-1.18,mdcs9lhvqatu1fr,0,Windows,Chrome,567.5349999219179,_faces/WM09_H_U.jpg,NA,,,emotionRatingFaceWindow,NA,NA,NA,80,6,1,happy,72,WM09_H_U,WM09,W,M,H,U,1,,NA,,,,,,,NA,NA,NA,NA,NA,NA,NA,NA,NA,NA,NA,NA,NA,NA,NA,NA,NA,NA,NA,NA,NA,NA,NA,NA,NA,NA,NA,NA,NA,NA,NA,NA,NA,NA,NA,NA,NA,NA,NA,NA,NA,NA,NA,NA,NA,NA,NA,NA,NA,NA,NA,NA,NA,NA,NA,NA,NA,NA,NA,NA,NA,NA,NA,NA,NA,NA,NA,NA,NA,NA,NA,NA,NA,NA,NA,NA,NA,NA,NA,NA,NA,NA,NA,NA,NA,NA,NA,NA,NA,NA,NA,NA,,,,NA
html-keyboard-response,163,216015,0.0-6.0-0.19,mdcs9lhvqatu1fr,0,Windows,Chrome,NA,+,NA,,,fixation,NA,NA,NA,NA,NA,NA,,NA,,,,,,,NA,,NA,,,,,,,NA,NA,NA,NA,NA,NA,NA,NA,NA,NA,NA,NA,NA,NA,NA,NA,NA,NA,NA,NA,NA,NA,NA,NA,NA,NA,NA,NA,NA,NA,NA,NA,NA,NA,NA,NA,NA,NA,NA,NA,NA,NA,NA,NA,NA,NA,NA,NA,NA,NA,NA,NA,NA,NA,NA,NA,NA,NA,NA,NA,NA,NA,NA,NA,NA,NA,NA,NA,NA,NA,NA,NA,NA,NA,NA,NA,NA,NA,NA,NA,NA,NA,NA,NA,NA,NA,NA,NA,NA,NA,NA,NA,,,,NA
image-keyboard-response,164,216529,0.0-6.0-1.19,mdcs9lhvqatu1fr,0,Windows,Chrome,512.1049999725074,_faces/WF05_F_U.jpg,NA,,,emotionRatingFaceWindow,NA,NA,NA,81,6,1,happy,73,WF05_F_U,WF05,W,F,F,U,0,,NA,,,,,,,NA,NA,NA,NA,NA,NA,NA,NA,NA,NA,NA,NA,NA,NA,NA,NA,NA,NA,NA,NA,NA,NA,NA,NA,NA,NA,NA,NA,NA,NA,NA,NA,NA,NA,NA,NA,NA,NA,NA,NA,NA,NA,NA,NA,NA,NA,NA,NA,NA,NA,NA,NA,NA,NA,NA,NA,NA,NA,NA,NA,NA,NA,NA,NA,NA,NA,NA,NA,NA,NA,NA,NA,NA,NA,NA,NA,NA,NA,NA,NA,NA,NA,NA,NA,NA,NA,NA,NA,NA,NA,NA,NA,,,,NA
html-keyboard-response,165,217531,0.0-6.0-0.20,mdcs9lhvqatu1fr,0,Windows,Chrome,NA,+,NA,,,fixation,NA,NA,NA,NA,NA,NA,,NA,,,,,,,NA,,NA,,,,,,,NA,NA,NA,NA,NA,NA,NA,NA,NA,NA,NA,NA,NA,NA,NA,NA,NA,NA,NA,NA,NA,NA,NA,NA,NA,NA,NA,NA,NA,NA,NA,NA,NA,NA,NA,NA,NA,NA,NA,NA,NA,NA,NA,NA,NA,NA,NA,NA,NA,NA,NA,NA,NA,NA,NA,NA,NA,NA,NA,NA,NA,NA,NA,NA,NA,NA,NA,NA,NA,NA,NA,NA,NA,NA,NA,NA,NA,NA,NA,NA,NA,NA,NA,NA,NA,NA,NA,NA,NA,NA,NA,NA,,,,NA
image-keyboard-response,166,218099,0.0-6.0-1.20,mdcs9lhvqatu1fr,0,Windows,Chrome,564.7899999748915,_faces/AM07_F_L.jpg,NA,,,emotionRatingFaceWindow,NA,NA,NA,81,6,1,happy,74,AM07_F_L,AM07,A,M,F,L,0,,NA,,,,,,,NA,NA,NA,NA,NA,NA,NA,NA,NA,NA,NA,NA,NA,NA,NA,NA,NA,NA,NA,NA,NA,NA,NA,NA,NA,NA,NA,NA,NA,NA,NA,NA,NA,NA,NA,NA,NA,NA,NA,NA,NA,NA,NA,NA,NA,NA,NA,NA,NA,NA,NA,NA,NA,NA,NA,NA,NA,NA,NA,NA,NA,NA,NA,NA,NA,NA,NA,NA,NA,NA,NA,NA,NA,NA,NA,NA,NA,NA,NA,NA,NA,NA,NA,NA,NA,NA,NA,NA,NA,NA,NA,NA,,,,NA
html-keyboard-response,167,219100,0.0-6.0-0.21,mdcs9lhvqatu1fr,0,Windows,Chrome,NA,+,NA,,,fixation,NA,NA,NA,NA,NA,NA,,NA,,,,,,,NA,,NA,,,,,,,NA,NA,NA,NA,NA,NA,NA,NA,NA,NA,NA,NA,NA,NA,NA,NA,NA,NA,NA,NA,NA,NA,NA,NA,NA,NA,NA,NA,NA,NA,NA,NA,NA,NA,NA,NA,NA,NA,NA,NA,NA,NA,NA,NA,NA,NA,NA,NA,NA,NA,NA,NA,NA,NA,NA,NA,NA,NA,NA,NA,NA,NA,NA,NA,NA,NA,NA,NA,NA,NA,NA,NA,NA,NA,NA,NA,NA,NA,NA,NA,NA,NA,NA,NA,NA,NA,NA,NA,NA,NA,NA,NA,,,,NA
image-keyboard-response,168,219648,0.0-6.0-1.21,mdcs9lhvqatu1fr,0,Windows,Chrome,544.6300000185147,_faces/AF06_S_X.jpg,NA,,,emotionRatingFaceWindow,NA,NA,NA,81,6,1,happy,75,AF06_S_X,AF06,A,F,S,X,0,,NA,,,,,,,NA,NA,NA,NA,NA,NA,NA,NA,NA,NA,NA,NA,NA,NA,NA,NA,NA,NA,NA,NA,NA,NA,NA,NA,NA,NA,NA,NA,NA,NA,NA,NA,NA,NA,NA,NA,NA,NA,NA,NA,NA,NA,NA,NA,NA,NA,NA,NA,NA,NA,NA,NA,NA,NA,NA,NA,NA,NA,NA,NA,NA,NA,NA,NA,NA,NA,NA,NA,NA,NA,NA,NA,NA,NA,NA,NA,NA,NA,NA,NA,NA,NA,NA,NA,NA,NA,NA,NA,NA,NA,NA,NA,,,,NA
html-keyboard-response,169,220652,0.0-6.0-0.22,mdcs9lhvqatu1fr,0,Windows,Chrome,NA,+,NA,,,fixation,NA,NA,NA,NA,NA,NA,,NA,,,,,,,NA,,NA,,,,,,,NA,NA,NA,NA,NA,NA,NA,NA,NA,NA,NA,NA,NA,NA,NA,NA,NA,NA,NA,NA,NA,NA,NA,NA,NA,NA,NA,NA,NA,NA,NA,NA,NA,NA,NA,NA,NA,NA,NA,NA,NA,NA,NA,NA,NA,NA,NA,NA,NA,NA,NA,NA,NA,NA,NA,NA,NA,NA,NA,NA,NA,NA,NA,NA,NA,NA,NA,NA,NA,NA,NA,NA,NA,NA,NA,NA,NA,NA,NA,NA,NA,NA,NA,NA,NA,NA,NA,NA,NA,NA,NA,NA,,,,NA
image-keyboard-response,170,221273,0.0-6.0-1.22,mdcs9lhvqatu1fr,0,Windows,Chrome,618.5749999713153,_faces/HF04_F_X.jpg,NA,,,emotionRatingFaceWindow,NA,NA,NA,81,6,1,happy,76,HF04_F_X,HF04,H,F,F,X,0,,NA,,,,,,,NA,NA,NA,NA,NA,NA,NA,NA,NA,NA,NA,NA,NA,NA,NA,NA,NA,NA,NA,NA,NA,NA,NA,NA,NA,NA,NA,NA,NA,NA,NA,NA,NA,NA,NA,NA,NA,NA,NA,NA,NA,NA,NA,NA,NA,NA,NA,NA,NA,NA,NA,NA,NA,NA,NA,NA,NA,NA,NA,NA,NA,NA,NA,NA,NA,NA,NA,NA,NA,NA,NA,NA,NA,NA,NA,NA,NA,NA,NA,NA,NA,NA,NA,NA,NA,NA,NA,NA,NA,NA,NA,NA,,,,NA
html-keyboard-response,171,222274,0.0-6.0-0.23,mdcs9lhvqatu1fr,0,Windows,Chrome,NA,+,NA,,,fixation,NA,NA,NA,NA,NA,NA,,NA,,,,,,,NA,,NA,,,,,,,NA,NA,NA,NA,NA,NA,NA,NA,NA,NA,NA,NA,NA,NA,NA,NA,NA,NA,NA,NA,NA,NA,NA,NA,NA,NA,NA,NA,NA,NA,NA,NA,NA,NA,NA,NA,NA,NA,NA,NA,NA,NA,NA,NA,NA,NA,NA,NA,NA,NA,NA,NA,NA,NA,NA,NA,NA,NA,NA,NA,NA,NA,NA,NA,NA,NA,NA,NA,NA,NA,NA,NA,NA,NA,NA,NA,NA,NA,NA,NA,NA,NA,NA,NA,NA,NA,NA,NA,NA,NA,NA,NA,,,,NA
image-keyboard-response,172,222985,0.0-6.0-1.23,mdcs9lhvqatu1fr,0,Windows,Chrome,709.5650000264868,_faces/HF09_R_L.jpg,NA,,,emotionRatingFaceWindow,NA,NA,NA,81,6,1,happy,77,HF09_R_L,HF09,H,F,R,L,0,,NA,,,,,,,NA,NA,NA,NA,NA,NA,NA,NA,NA,NA,NA,NA,NA,NA,NA,NA,NA,NA,NA,NA,NA,NA,NA,NA,NA,NA,NA,NA,NA,NA,NA,NA,NA,NA,NA,NA,NA,NA,NA,NA,NA,NA,NA,NA,NA,NA,NA,NA,NA,NA,NA,NA,NA,NA,NA,NA,NA,NA,NA,NA,NA,NA,NA,NA,NA,NA,NA,NA,NA,NA,NA,NA,NA,NA,NA,NA,NA,NA,NA,NA,NA,NA,NA,NA,NA,NA,NA,NA,NA,NA,NA,NA,,,,NA
html-keyboard-response,173,223987,0.0-6.0-0.24,mdcs9lhvqatu1fr,0,Windows,Chrome,NA,+,NA,,,fixation,NA,NA,NA,NA,NA,NA,,NA,,,,,,,NA,,NA,,,,,,,NA,NA,NA,NA,NA,NA,NA,NA,NA,NA,NA,NA,NA,NA,NA,NA,NA,NA,NA,NA,NA,NA,NA,NA,NA,NA,NA,NA,NA,NA,NA,NA,NA,NA,NA,NA,NA,NA,NA,NA,NA,NA,NA,NA,NA,NA,NA,NA,NA,NA,NA,NA,NA,NA,NA,NA,NA,NA,NA,NA,NA,NA,NA,NA,NA,NA,NA,NA,NA,NA,NA,NA,NA,NA,NA,NA,NA,NA,NA,NA,NA,NA,NA,NA,NA,NA,NA,NA,NA,NA,NA,NA,,,,NA
image-keyboard-response,174,224440,0.0-6.0-1.24,mdcs9lhvqatu1fr,0,Windows,Chrome,452.15000002644956,_faces/WM13_R_L.jpg,NA,,,emotionRatingFaceWindow,NA,NA,NA,81,6,1,happy,78,WM13_R_L,WM13,W,M,R,L,0,,NA,,,,,,,NA,NA,NA,NA,NA,NA,NA,NA,NA,NA,NA,NA,NA,NA,NA,NA,NA,NA,NA,NA,NA,NA,NA,NA,NA,NA,NA,NA,NA,NA,NA,NA,NA,NA,NA,NA,NA,NA,NA,NA,NA,NA,NA,NA,NA,NA,NA,NA,NA,NA,NA,NA,NA,NA,NA,NA,NA,NA,NA,NA,NA,NA,NA,NA,NA,NA,NA,NA,NA,NA,NA,NA,NA,NA,NA,NA,NA,NA,NA,NA,NA,NA,NA,NA,NA,NA,NA,NA,NA,NA,NA,NA,,,,NA
html-keyboard-response,175,225442,0.0-6.0-0.25,mdcs9lhvqatu1fr,0,Windows,Chrome,NA,+,NA,,,fixation,NA,NA,NA,NA,NA,NA,,NA,,,,,,,NA,,NA,,,,,,,NA,NA,NA,NA,NA,NA,NA,NA,NA,NA,NA,NA,NA,NA,NA,NA,NA,NA,NA,NA,NA,NA,NA,NA,NA,NA,NA,NA,NA,NA,NA,NA,NA,NA,NA,NA,NA,NA,NA,NA,NA,NA,NA,NA,NA,NA,NA,NA,NA,NA,NA,NA,NA,NA,NA,NA,NA,NA,NA,NA,NA,NA,NA,NA,NA,NA,NA,NA,NA,NA,NA,NA,NA,NA,NA,NA,NA,NA,NA,NA,NA,NA,NA,NA,NA,NA,NA,NA,NA,NA,NA,NA,,,,NA
image-keyboard-response,176,225984,0.0-6.0-1.25,mdcs9lhvqatu1fr,0,Windows,Chrome,540.8349999925122,_faces/AM04_D_U.jpg,NA,,,emotionRatingFaceWindow,NA,NA,NA,81,6,1,happy,79,AM04_D_U,AM04,A,M,D,U,0,,NA,,,,,,,NA,NA,NA,NA,NA,NA,NA,NA,NA,NA,NA,NA,NA,NA,NA,NA,NA,NA,NA,NA,NA,NA,NA,NA,NA,NA,NA,NA,NA,NA,NA,NA,NA,NA,NA,NA,NA,NA,NA,NA,NA,NA,NA,NA,NA,NA,NA,NA,NA,NA,NA,NA,NA,NA,NA,NA,NA,NA,NA,NA,NA,NA,NA,NA,NA,NA,NA,NA,NA,NA,NA,NA,NA,NA,NA,NA,NA,NA,NA,NA,NA,NA,NA,NA,NA,NA,NA,NA,NA,NA,NA,NA,,,,NA
html-keyboard-response,177,226985,0.0-6.0-0.26,mdcs9lhvqatu1fr,0,Windows,Chrome,NA,+,NA,,,fixation,NA,NA,NA,NA,NA,NA,,NA,,,,,,,NA,,NA,,,,,,,NA,NA,NA,NA,NA,NA,NA,NA,NA,NA,NA,NA,NA,NA,NA,NA,NA,NA,NA,NA,NA,NA,NA,NA,NA,NA,NA,NA,NA,NA,NA,NA,NA,NA,NA,NA,NA,NA,NA,NA,NA,NA,NA,NA,NA,NA,NA,NA,NA,NA,NA,NA,NA,NA,NA,NA,NA,NA,NA,NA,NA,NA,NA,NA,NA,NA,NA,NA,NA,NA,NA,NA,NA,NA,NA,NA,NA,NA,NA,NA,NA,NA,NA,NA,NA,NA,NA,NA,NA,NA,NA,NA,,,,NA
image-keyboard-response,178,227450,0.0-6.0-1.26,mdcs9lhvqatu1fr,0,Windows,Chrome,463.05999998003244,_faces/AM07_F_U.jpg,NA,,,emotionRatingFaceWindow,NA,NA,NA,81,6,1,happy,80,AM07_F_U,AM07,A,M,F,U,0,,NA,,,,,,,NA,NA,NA,NA,NA,NA,NA,NA,NA,NA,NA,NA,NA,NA,NA,NA,NA,NA,NA,NA,NA,NA,NA,NA,NA,NA,NA,NA,NA,NA,NA,NA,NA,NA,NA,NA,NA,NA,NA,NA,NA,NA,NA,NA,NA,NA,NA,NA,NA,NA,NA,NA,NA,NA,NA,NA,NA,NA,NA,NA,NA,NA,NA,NA,NA,NA,NA,NA,NA,NA,NA,NA,NA,NA,NA,NA,NA,NA,NA,NA,NA,NA,NA,NA,NA,NA,NA,NA,NA,NA,NA,NA,,,,NA
html-keyboard-response,179,228452,0.0-6.0-0.27,mdcs9lhvqatu1fr,0,Windows,Chrome,NA,+,NA,,,fixation,NA,NA,NA,NA,NA,NA,,NA,,,,,,,NA,,NA,,,,,,,NA,NA,NA,NA,NA,NA,NA,NA,NA,NA,NA,NA,NA,NA,NA,NA,NA,NA,NA,NA,NA,NA,NA,NA,NA,NA,NA,NA,NA,NA,NA,NA,NA,NA,NA,NA,NA,NA,NA,NA,NA,NA,NA,NA,NA,NA,NA,NA,NA,NA,NA,NA,NA,NA,NA,NA,NA,NA,NA,NA,NA,NA,NA,NA,NA,NA,NA,NA,NA,NA,NA,NA,NA,NA,NA,NA,NA,NA,NA,NA,NA,NA,NA,NA,NA,NA,NA,NA,NA,NA,NA,NA,,,,NA
image-keyboard-response,180,228921,0.0-6.0-1.27,mdcs9lhvqatu1fr,0,Windows,Chrome,466.7749999789521,_faces/AM07_F_X.jpg,NA,,,emotionRatingFaceWindow,NA,NA,NA,81,6,1,happy,81,AM07_F_X,AM07,A,M,F,X,0,,NA,,,,,,,NA,NA,NA,NA,NA,NA,NA,NA,NA,NA,NA,NA,NA,NA,NA,NA,NA,NA,NA,NA,NA,NA,NA,NA,NA,NA,NA,NA,NA,NA,NA,NA,NA,NA,NA,NA,NA,NA,NA,NA,NA,NA,NA,NA,NA,NA,NA,NA,NA,NA,NA,NA,NA,NA,NA,NA,NA,NA,NA,NA,NA,NA,NA,NA,NA,NA,NA,NA,NA,NA,NA,NA,NA,NA,NA,NA,NA,NA,NA,NA,NA,NA,NA,NA,NA,NA,NA,NA,NA,NA,NA,NA,,,,NA
html-keyboard-response,181,229922,0.0-6.0-0.28,mdcs9lhvqatu1fr,0,Windows,Chrome,NA,+,NA,,,fixation,NA,NA,NA,NA,NA,NA,,NA,,,,,,,NA,,NA,,,,,,,NA,NA,NA,NA,NA,NA,NA,NA,NA,NA,NA,NA,NA,NA,NA,NA,NA,NA,NA,NA,NA,NA,NA,NA,NA,NA,NA,NA,NA,NA,NA,NA,NA,NA,NA,NA,NA,NA,NA,NA,NA,NA,NA,NA,NA,NA,NA,NA,NA,NA,NA,NA,NA,NA,NA,NA,NA,NA,NA,NA,NA,NA,NA,NA,NA,NA,NA,NA,NA,NA,NA,NA,NA,NA,NA,NA,NA,NA,NA,NA,NA,NA,NA,NA,NA,NA,NA,NA,NA,NA,NA,NA,,,,NA
image-keyboard-response,182,230526,0.0-6.0-1.28,mdcs9lhvqatu1fr,0,Windows,Chrome,601.4600000344217,_faces/AM11_H_U.jpg,NA,,,emotionRatingFaceWindow,NA,NA,NA,80,6,1,happy,82,AM11_H_U,AM11,A,M,H,U,1,,NA,,,,,,,NA,NA,NA,NA,NA,NA,NA,NA,NA,NA,NA,NA,NA,NA,NA,NA,NA,NA,NA,NA,NA,NA,NA,NA,NA,NA,NA,NA,NA,NA,NA,NA,NA,NA,NA,NA,NA,NA,NA,NA,NA,NA,NA,NA,NA,NA,NA,NA,NA,NA,NA,NA,NA,NA,NA,NA,NA,NA,NA,NA,NA,NA,NA,NA,NA,NA,NA,NA,NA,NA,NA,NA,NA,NA,NA,NA,NA,NA,NA,NA,NA,NA,NA,NA,NA,NA,NA,NA,NA,NA,NA,NA,,,,NA
html-keyboard-response,183,231529,0.0-6.0-0.29,mdcs9lhvqatu1fr,0,Windows,Chrome,NA,+,NA,,,fixation,NA,NA,NA,NA,NA,NA,,NA,,,,,,,NA,,NA,,,,,,,NA,NA,NA,NA,NA,NA,NA,NA,NA,NA,NA,NA,NA,NA,NA,NA,NA,NA,NA,NA,NA,NA,NA,NA,NA,NA,NA,NA,NA,NA,NA,NA,NA,NA,NA,NA,NA,NA,NA,NA,NA,NA,NA,NA,NA,NA,NA,NA,NA,NA,NA,NA,NA,NA,NA,NA,NA,NA,NA,NA,NA,NA,NA,NA,NA,NA,NA,NA,NA,NA,NA,NA,NA,NA,NA,NA,NA,NA,NA,NA,NA,NA,NA,NA,NA,NA,NA,NA,NA,NA,NA,NA,,,,NA
image-keyboard-response,184,232093,0.0-6.0-1.29,mdcs9lhvqatu1fr,0,Windows,Chrome,561.6200000513345,_faces/BM17_D_L.jpg,NA,,,emotionRatingFaceWindow,NA,NA,NA,81,6,1,happy,83,BM17_D_L,BM17,B,M,D,L,0,,NA,,,,,,,NA,NA,NA,NA,NA,NA,NA,NA,NA,NA,NA,NA,NA,NA,NA,NA,NA,NA,NA,NA,NA,NA,NA,NA,NA,NA,NA,NA,NA,NA,NA,NA,NA,NA,NA,NA,NA,NA,NA,NA,NA,NA,NA,NA,NA,NA,NA,NA,NA,NA,NA,NA,NA,NA,NA,NA,NA,NA,NA,NA,NA,NA,NA,NA,NA,NA,NA,NA,NA,NA,NA,NA,NA,NA,NA,NA,NA,NA,NA,NA,NA,NA,NA,NA,NA,NA,NA,NA,NA,NA,NA,NA,,,,NA
html-keyboard-response,185,233095,0.0-6.0-0.30,mdcs9lhvqatu1fr,0,Windows,Chrome,NA,+,NA,,,fixation,NA,NA,NA,NA,NA,NA,,NA,,,,,,,NA,,NA,,,,,,,NA,NA,NA,NA,NA,NA,NA,NA,NA,NA,NA,NA,NA,NA,NA,NA,NA,NA,NA,NA,NA,NA,NA,NA,NA,NA,NA,NA,NA,NA,NA,NA,NA,NA,NA,NA,NA,NA,NA,NA,NA,NA,NA,NA,NA,NA,NA,NA,NA,NA,NA,NA,NA,NA,NA,NA,NA,NA,NA,NA,NA,NA,NA,NA,NA,NA,NA,NA,NA,NA,NA,NA,NA,NA,NA,NA,NA,NA,NA,NA,NA,NA,NA,NA,NA,NA,NA,NA,NA,NA,NA,NA,,,,NA
image-keyboard-response,186,233611,0.0-6.0-1.30,mdcs9lhvqatu1fr,0,Windows,Chrome,514.1999999759719,_faces/WF05_F_L.jpg,NA,,,emotionRatingFaceWindow,NA,NA,NA,81,6,1,happy,84,WF05_F_L,WF05,W,F,F,L,0,,NA,,,,,,,NA,NA,NA,NA,NA,NA,NA,NA,NA,NA,NA,NA,NA,NA,NA,NA,NA,NA,NA,NA,NA,NA,NA,NA,NA,NA,NA,NA,NA,NA,NA,NA,NA,NA,NA,NA,NA,NA,NA,NA,NA,NA,NA,NA,NA,NA,NA,NA,NA,NA,NA,NA,NA,NA,NA,NA,NA,NA,NA,NA,NA,NA,NA,NA,NA,NA,NA,NA,NA,NA,NA,NA,NA,NA,NA,NA,NA,NA,NA,NA,NA,NA,NA,NA,NA,NA,NA,NA,NA,NA,NA,NA,,,,NA
html-keyboard-response,187,234614,0.0-6.0-0.31,mdcs9lhvqatu1fr,0,Windows,Chrome,NA,+,NA,,,fixation,NA,NA,NA,NA,NA,NA,,NA,,,,,,,NA,,NA,,,,,,,NA,NA,NA,NA,NA,NA,NA,NA,NA,NA,NA,NA,NA,NA,NA,NA,NA,NA,NA,NA,NA,NA,NA,NA,NA,NA,NA,NA,NA,NA,NA,NA,NA,NA,NA,NA,NA,NA,NA,NA,NA,NA,NA,NA,NA,NA,NA,NA,NA,NA,NA,NA,NA,NA,NA,NA,NA,NA,NA,NA,NA,NA,NA,NA,NA,NA,NA,NA,NA,NA,NA,NA,NA,NA,NA,NA,NA,NA,NA,NA,NA,NA,NA,NA,NA,NA,NA,NA,NA,NA,NA,NA,,,,NA
image-keyboard-response,188,235289,0.0-6.0-1.31,mdcs9lhvqatu1fr,0,Windows,Chrome,671.9499999890104,_faces/HF05_H_X.jpg,NA,,,emotionRatingFaceWindow,NA,NA,NA,80,6,1,happy,85,HF05_H_X,HF05,H,F,H,X,1,,NA,,,,,,,NA,NA,NA,NA,NA,NA,NA,NA,NA,NA,NA,NA,NA,NA,NA,NA,NA,NA,NA,NA,NA,NA,NA,NA,NA,NA,NA,NA,NA,NA,NA,NA,NA,NA,NA,NA,NA,NA,NA,NA,NA,NA,NA,NA,NA,NA,NA,NA,NA,NA,NA,NA,NA,NA,NA,NA,NA,NA,NA,NA,NA,NA,NA,NA,NA,NA,NA,NA,NA,NA,NA,NA,NA,NA,NA,NA,NA,NA,NA,NA,NA,NA,NA,NA,NA,NA,NA,NA,NA,NA,NA,NA,,,,NA
html-keyboard-response,189,236290,0.0-6.0-0.32,mdcs9lhvqatu1fr,0,Windows,Chrome,NA,+,NA,,,fixation,NA,NA,NA,NA,NA,NA,,NA,,,,,,,NA,,NA,,,,,,,NA,NA,NA,NA,NA,NA,NA,NA,NA,NA,NA,NA,NA,NA,NA,NA,NA,NA,NA,NA,NA,NA,NA,NA,NA,NA,NA,NA,NA,NA,NA,NA,NA,NA,NA,NA,NA,NA,NA,NA,NA,NA,NA,NA,NA,NA,NA,NA,NA,NA,NA,NA,NA,NA,NA,NA,NA,NA,NA,NA,NA,NA,NA,NA,NA,NA,NA,NA,NA,NA,NA,NA,NA,NA,NA,NA,NA,NA,NA,NA,NA,NA,NA,NA,NA,NA,NA,NA,NA,NA,NA,NA,,,,NA
image-keyboard-response,190,236730,0.0-6.0-1.32,mdcs9lhvqatu1fr,0,Windows,Chrome,437.85500002559274,_faces/AF09_A_X.jpg,NA,,,emotionRatingFaceWindow,NA,NA,NA,81,6,1,happy,86,AF09_A_X,AF09,A,F,A,X,0,,NA,,,,,,,NA,NA,NA,NA,NA,NA,NA,NA,NA,NA,NA,NA,NA,NA,NA,NA,NA,NA,NA,NA,NA,NA,NA,NA,NA,NA,NA,NA,NA,NA,NA,NA,NA,NA,NA,NA,NA,NA,NA,NA,NA,NA,NA,NA,NA,NA,NA,NA,NA,NA,NA,NA,NA,NA,NA,NA,NA,NA,NA,NA,NA,NA,NA,NA,NA,NA,NA,NA,NA,NA,NA,NA,NA,NA,NA,NA,NA,NA,NA,NA,NA,NA,NA,NA,NA,NA,NA,NA,NA,NA,NA,NA,,,,NA
html-keyboard-response,191,237732,0.0-6.0-0.33,mdcs9lhvqatu1fr,0,Windows,Chrome,NA,+,NA,,,fixation,NA,NA,NA,NA,NA,NA,,NA,,,,,,,NA,,NA,,,,,,,NA,NA,NA,NA,NA,NA,NA,NA,NA,NA,NA,NA,NA,NA,NA,NA,NA,NA,NA,NA,NA,NA,NA,NA,NA,NA,NA,NA,NA,NA,NA,NA,NA,NA,NA,NA,NA,NA,NA,NA,NA,NA,NA,NA,NA,NA,NA,NA,NA,NA,NA,NA,NA,NA,NA,NA,NA,NA,NA,NA,NA,NA,NA,NA,NA,NA,NA,NA,NA,NA,NA,NA,NA,NA,NA,NA,NA,NA,NA,NA,NA,NA,NA,NA,NA,NA,NA,NA,NA,NA,NA,NA,,,,NA
image-keyboard-response,192,238458,0.0-6.0-1.33,mdcs9lhvqatu1fr,0,Windows,Chrome,719.1849999362603,_faces/AM11_H_L.jpg,NA,,,emotionRatingFaceWindow,NA,NA,NA,80,6,1,happy,87,AM11_H_L,AM11,A,M,H,L,1,,NA,,,,,,,NA,NA,NA,NA,NA,NA,NA,NA,NA,NA,NA,NA,NA,NA,NA,NA,NA,NA,NA,NA,NA,NA,NA,NA,NA,NA,NA,NA,NA,NA,NA,NA,NA,NA,NA,NA,NA,NA,NA,NA,NA,NA,NA,NA,NA,NA,NA,NA,NA,NA,NA,NA,NA,NA,NA,NA,NA,NA,NA,NA,NA,NA,NA,NA,NA,NA,NA,NA,NA,NA,NA,NA,NA,NA,NA,NA,NA,NA,NA,NA,NA,NA,NA,NA,NA,NA,NA,NA,NA,NA,NA,NA,,,,NA
html-keyboard-response,193,239463,0.0-6.0-0.34,mdcs9lhvqatu1fr,0,Windows,Chrome,NA,+,NA,,,fixation,NA,NA,NA,NA,NA,NA,,NA,,,,,,,NA,,NA,,,,,,,NA,NA,NA,NA,NA,NA,NA,NA,NA,NA,NA,NA,NA,NA,NA,NA,NA,NA,NA,NA,NA,NA,NA,NA,NA,NA,NA,NA,NA,NA,NA,NA,NA,NA,NA,NA,NA,NA,NA,NA,NA,NA,NA,NA,NA,NA,NA,NA,NA,NA,NA,NA,NA,NA,NA,NA,NA,NA,NA,NA,NA,NA,NA,NA,NA,NA,NA,NA,NA,NA,NA,NA,NA,NA,NA,NA,NA,NA,NA,NA,NA,NA,NA,NA,NA,NA,NA,NA,NA,NA,NA,NA,,,,NA
image-keyboard-response,194,240234,0.0-6.0-1.34,mdcs9lhvqatu1fr,0,Windows,Chrome,768.9249999821186,_faces/HM08_S_L.jpg,NA,,,emotionRatingFaceWindow,NA,NA,NA,80,6,1,happy,88,HM08_S_L,HM08,H,M,S,L,1,,NA,,,,,,,NA,NA,NA,NA,NA,NA,NA,NA,NA,NA,NA,NA,NA,NA,NA,NA,NA,NA,NA,NA,NA,NA,NA,NA,NA,NA,NA,NA,NA,NA,NA,NA,NA,NA,NA,NA,NA,NA,NA,NA,NA,NA,NA,NA,NA,NA,NA,NA,NA,NA,NA,NA,NA,NA,NA,NA,NA,NA,NA,NA,NA,NA,NA,NA,NA,NA,NA,NA,NA,NA,NA,NA,NA,NA,NA,NA,NA,NA,NA,NA,NA,NA,NA,NA,NA,NA,NA,NA,NA,NA,NA,NA,,,,NA
html-keyboard-response,195,241236,0.0-6.0-0.35,mdcs9lhvqatu1fr,0,Windows,Chrome,NA,+,NA,,,fixation,NA,NA,NA,NA,NA,NA,,NA,,,,,,,NA,,NA,,,,,,,NA,NA,NA,NA,NA,NA,NA,NA,NA,NA,NA,NA,NA,NA,NA,NA,NA,NA,NA,NA,NA,NA,NA,NA,NA,NA,NA,NA,NA,NA,NA,NA,NA,NA,NA,NA,NA,NA,NA,NA,NA,NA,NA,NA,NA,NA,NA,NA,NA,NA,NA,NA,NA,NA,NA,NA,NA,NA,NA,NA,NA,NA,NA,NA,NA,NA,NA,NA,NA,NA,NA,NA,NA,NA,NA,NA,NA,NA,NA,NA,NA,NA,NA,NA,NA,NA,NA,NA,NA,NA,NA,NA,,,,NA
image-keyboard-response,196,241718,0.0-6.0-1.35,mdcs9lhvqatu1fr,0,Windows,Chrome,479.1650000261143,_faces/HF09_R_X.jpg,NA,,,emotionRatingFaceWindow,NA,NA,NA,81,6,1,happy,89,HF09_R_X,HF09,H,F,R,X,0,,NA,,,,,,,NA,NA,NA,NA,NA,NA,NA,NA,NA,NA,NA,NA,NA,NA,NA,NA,NA,NA,NA,NA,NA,NA,NA,NA,NA,NA,NA,NA,NA,NA,NA,NA,NA,NA,NA,NA,NA,NA,NA,NA,NA,NA,NA,NA,NA,NA,NA,NA,NA,NA,NA,NA,NA,NA,NA,NA,NA,NA,NA,NA,NA,NA,NA,NA,NA,NA,NA,NA,NA,NA,NA,NA,NA,NA,NA,NA,NA,NA,NA,NA,NA,NA,NA,NA,NA,NA,NA,NA,NA,NA,NA,NA,,,,NA
html-keyboard-response,197,242720,0.0-6.0-0.36,mdcs9lhvqatu1fr,0,Windows,Chrome,NA,+,NA,,,fixation,NA,NA,NA,NA,NA,NA,,NA,,,,,,,NA,,NA,,,,,,,NA,NA,NA,NA,NA,NA,NA,NA,NA,NA,NA,NA,NA,NA,NA,NA,NA,NA,NA,NA,NA,NA,NA,NA,NA,NA,NA,NA,NA,NA,NA,NA,NA,NA,NA,NA,NA,NA,NA,NA,NA,NA,NA,NA,NA,NA,NA,NA,NA,NA,NA,NA,NA,NA,NA,NA,NA,NA,NA,NA,NA,NA,NA,NA,NA,NA,NA,NA,NA,NA,NA,NA,NA,NA,NA,NA,NA,NA,NA,NA,NA,NA,NA,NA,NA,NA,NA,NA,NA,NA,NA,NA,,,,NA
image-keyboard-response,198,243224,0.0-6.0-1.36,mdcs9lhvqatu1fr,0,Windows,Chrome,502.0699999295175,_faces/WF05_F_X.jpg,NA,,,emotionRatingFaceWindow,NA,NA,NA,81,6,1,happy,90,WF05_F_X,WF05,W,F,F,X,0,,NA,,,,,,,NA,NA,NA,NA,NA,NA,NA,NA,NA,NA,NA,NA,NA,NA,NA,NA,NA,NA,NA,NA,NA,NA,NA,NA,NA,NA,NA,NA,NA,NA,NA,NA,NA,NA,NA,NA,NA,NA,NA,NA,NA,NA,NA,NA,NA,NA,NA,NA,NA,NA,NA,NA,NA,NA,NA,NA,NA,NA,NA,NA,NA,NA,NA,NA,NA,NA,NA,NA,NA,NA,NA,NA,NA,NA,NA,NA,NA,NA,NA,NA,NA,NA,NA,NA,NA,NA,NA,NA,NA,NA,NA,NA,,,,NA
html-keyboard-response,199,244226,0.0-6.0-0.37,mdcs9lhvqatu1fr,0,Windows,Chrome,NA,+,NA,,,fixation,NA,NA,NA,NA,NA,NA,,NA,,,,,,,NA,,NA,,,,,,,NA,NA,NA,NA,NA,NA,NA,NA,NA,NA,NA,NA,NA,NA,NA,NA,NA,NA,NA,NA,NA,NA,NA,NA,NA,NA,NA,NA,NA,NA,NA,NA,NA,NA,NA,NA,NA,NA,NA,NA,NA,NA,NA,NA,NA,NA,NA,NA,NA,NA,NA,NA,NA,NA,NA,NA,NA,NA,NA,NA,NA,NA,NA,NA,NA,NA,NA,NA,NA,NA,NA,NA,NA,NA,NA,NA,NA,NA,NA,NA,NA,NA,NA,NA,NA,NA,NA,NA,NA,NA,NA,NA,,,,NA
image-keyboard-response,200,244706,0.0-6.0-1.37,mdcs9lhvqatu1fr,0,Windows,Chrome,478.29999995883554,_faces/HM09_A_X.jpg,NA,,,emotionRatingFaceWindow,NA,NA,NA,81,6,1,happy,91,HM09_A_X,HM09,H,M,A,X,0,,NA,,,,,,,NA,NA,NA,NA,NA,NA,NA,NA,NA,NA,NA,NA,NA,NA,NA,NA,NA,NA,NA,NA,NA,NA,NA,NA,NA,NA,NA,NA,NA,NA,NA,NA,NA,NA,NA,NA,NA,NA,NA,NA,NA,NA,NA,NA,NA,NA,NA,NA,NA,NA,NA,NA,NA,NA,NA,NA,NA,NA,NA,NA,NA,NA,NA,NA,NA,NA,NA,NA,NA,NA,NA,NA,NA,NA,NA,NA,NA,NA,NA,NA,NA,NA,NA,NA,NA,NA,NA,NA,NA,NA,NA,NA,,,,NA
html-keyboard-response,201,245708,0.0-6.0-0.38,mdcs9lhvqatu1fr,0,Windows,Chrome,NA,+,NA,,,fixation,NA,NA,NA,NA,NA,NA,,NA,,,,,,,NA,,NA,,,,,,,NA,NA,NA,NA,NA,NA,NA,NA,NA,NA,NA,NA,NA,NA,NA,NA,NA,NA,NA,NA,NA,NA,NA,NA,NA,NA,NA,NA,NA,NA,NA,NA,NA,NA,NA,NA,NA,NA,NA,NA,NA,NA,NA,NA,NA,NA,NA,NA,NA,NA,NA,NA,NA,NA,NA,NA,NA,NA,NA,NA,NA,NA,NA,NA,NA,NA,NA,NA,NA,NA,NA,NA,NA,NA,NA,NA,NA,NA,NA,NA,NA,NA,NA,NA,NA,NA,NA,NA,NA,NA,NA,NA,,,,NA
image-keyboard-response,202,246137,0.0-6.0-1.38,mdcs9lhvqatu1fr,0,Windows,Chrome,425.81499996595085,_faces/HM09_A_L.jpg,NA,,,emotionRatingFaceWindow,NA,NA,NA,81,6,1,happy,92,HM09_A_L,HM09,H,M,A,L,0,,NA,,,,,,,NA,NA,NA,NA,NA,NA,NA,NA,NA,NA,NA,NA,NA,NA,NA,NA,NA,NA,NA,NA,NA,NA,NA,NA,NA,NA,NA,NA,NA,NA,NA,NA,NA,NA,NA,NA,NA,NA,NA,NA,NA,NA,NA,NA,NA,NA,NA,NA,NA,NA,NA,NA,NA,NA,NA,NA,NA,NA,NA,NA,NA,NA,NA,NA,NA,NA,NA,NA,NA,NA,NA,NA,NA,NA,NA,NA,NA,NA,NA,NA,NA,NA,NA,NA,NA,NA,NA,NA,NA,NA,NA,NA,,,,NA
html-keyboard-response,203,247143,0.0-6.0-0.39,mdcs9lhvqatu1fr,0,Windows,Chrome,NA,+,NA,,,fixation,NA,NA,NA,NA,NA,NA,,NA,,,,,,,NA,,NA,,,,,,,NA,NA,NA,NA,NA,NA,NA,NA,NA,NA,NA,NA,NA,NA,NA,NA,NA,NA,NA,NA,NA,NA,NA,NA,NA,NA,NA,NA,NA,NA,NA,NA,NA,NA,NA,NA,NA,NA,NA,NA,NA,NA,NA,NA,NA,NA,NA,NA,NA,NA,NA,NA,NA,NA,NA,NA,NA,NA,NA,NA,NA,NA,NA,NA,NA,NA,NA,NA,NA,NA,NA,NA,NA,NA,NA,NA,NA,NA,NA,NA,NA,NA,NA,NA,NA,NA,NA,NA,NA,NA,NA,NA,,,,NA
