trial_type,trial_index,time_elapsed,internal_node_id,subject,keyPair,subjectOS,subjectBrowser,rt,stimulus,button_pressed,responses,question_order,whichWindow,checkRatingAccuracy,checkKeyYesAccuracy,checkKeyNoAccuracy,key_press,faceList,block,emotionRating,trial,face,model,ethnicity,sex,expression,mask,rateEmotion,personRating,ratePerson,whichQ,ipsos1,ipsos2_0,ipsos2_1,ipsos3_0,ipsos3_1,ipsos4,ipsos5_0,ipsos5_1,ipsos5_2,BEQS1,BEQS2,BEQS3,BEQS4,BEQS5,BEQS6,BFI1,BFI2,BFI3,BFI4,BFI5,BFI6,BFI7,BFI8,BFI9,BFI10,BFI11,BFI12,BFI13,BFI14,BFI15,BFI16,BFI17,BFI18,BFI19,BFI20,BFI21,BFI22,BFI23,BFI24,BFI25,BFI26,BFI27,BFI28,BFI29,BFI30,BFI31,BFI32,BFI33,BFI34,BFI35,BFI36,BFI37,BFI38,BFI39,BFI40,BFI41,BFI42,BFI43,BFI44,INDCOL1,INDCOL2,INDCOL3,INDCOL4,INDCOL5,INDCOL6,INDCOL7,INDCOL8,INDCOL9,INDCOL10,INDCOL11,INDCOL12,INDCOL13,INDCOL14,IRQ1,IRQ2,IRQ3,IRQ4,IRQ5,IRQ6,IRQ7,IRQ8,IRQ9,IRQ10,IRQ11,IRQ12,IRQ13,IRQ14,IRQ15,IRQ16,attentionCheck,AQC1,AQC2,AQC3,AQC4,AQC5,AQC6,AQC7,AQC8,AQC9,AQC10,age,gender,ethnicity0,politicalIdeology
pavlovia,0,17,0.0-0.0,7ynpv8c34psnjr1,0,Windows,Chrome,NA,,NA,,,,NA,NA,NA,NA,NA,NA,,NA,,,,,,,NA,,NA,,,,,,,,,,,NA,NA,NA,NA,NA,NA,NA,NA,NA,NA,NA,NA,NA,NA,NA,NA,NA,NA,NA,NA,NA,NA,NA,NA,NA,NA,NA,NA,NA,NA,NA,NA,NA,NA,NA,NA,NA,NA,NA,NA,NA,NA,NA,NA,NA,NA,NA,NA,NA,NA,NA,NA,NA,NA,NA,NA,NA,NA,NA,NA,NA,NA,NA,NA,NA,NA,NA,NA,NA,NA,NA,NA,NA,NA,NA,NA,NA,NA,NA,NA,NA,NA,NA,NA,NA,NA,NA,NA,NA,NA,NA,NA,,,NA
html-button-response,1,1809,0.0-1.0-0.0,7ynpv8c34psnjr1,0,Windows,Chrome,1791.1300000268966,<p>Welcome to the experiment! Please click continue to begin.</p>,0,,,,NA,NA,NA,NA,NA,NA,,NA,,,,,,,NA,,NA,,,,,,,,,,,NA,NA,NA,NA,NA,NA,NA,NA,NA,NA,NA,NA,NA,NA,NA,NA,NA,NA,NA,NA,NA,NA,NA,NA,NA,NA,NA,NA,NA,NA,NA,NA,NA,NA,NA,NA,NA,NA,NA,NA,NA,NA,NA,NA,NA,NA,NA,NA,NA,NA,NA,NA,NA,NA,NA,NA,NA,NA,NA,NA,NA,NA,NA,NA,NA,NA,NA,NA,NA,NA,NA,NA,NA,NA,NA,NA,NA,NA,NA,NA,NA,NA,NA,NA,NA,NA,NA,NA,NA,NA,NA,NA,,,NA
html-button-response,2,8330,0.0-1.0-1.0,7ynpv8c34psnjr1,0,Windows,Chrome,6019.015000027139,"<p>On the next screen, you will see a generic consent form approved by Temple University Institutional Review Board. Your consent to that form is required to participate.</p> <p>Please note that the study will actually only last 30 minutes. Please also disregard any references to students.</p>",0,,,,NA,NA,NA,NA,NA,NA,,NA,,,,,,,NA,,NA,,,,,,,,,,,NA,NA,NA,NA,NA,NA,NA,NA,NA,NA,NA,NA,NA,NA,NA,NA,NA,NA,NA,NA,NA,NA,NA,NA,NA,NA,NA,NA,NA,NA,NA,NA,NA,NA,NA,NA,NA,NA,NA,NA,NA,NA,NA,NA,NA,NA,NA,NA,NA,NA,NA,NA,NA,NA,NA,NA,NA,NA,NA,NA,NA,NA,NA,NA,NA,NA,NA,NA,NA,NA,NA,NA,NA,NA,NA,NA,NA,NA,NA,NA,NA,NA,NA,NA,NA,NA,NA,NA,NA,NA,NA,NA,,,NA
html-button-response,3,19615,0.0-1.0-2.0,7ynpv8c34psnjr1,0,Windows,Chrome,10774.81999999145,"<p><b><u>ONLINE CONSENT FORM (PAGE 1 OF 3)</u></b><p><p><b>Why you are being invited to take part in a research study?</b></p><p>We invite you to partake in this research study to understand how attitudes shape decisions related to attractiveness.</p><p><b>Who can I talk to?</b></p><p>If you have questions, concerns, or complaints, or think the research has hurt you, contact the research team at vinod.venkatraman@temple.edu or call 215-204-8177. Our physical address is Alter Hall A562, 1801 Liacouras Walk, Philadelphia, PA 19122.</p><p>This research has been reviewed and approved by an Institutional Review Board. You may talk to them at (215) 707-3390 or e-mail them at: irb@temple.edu for any of the following:</p><p><ul style='list-style-type:none'><li>Your questions, concerns, or complaints are not being answered by the research team.</li><li>You cannot reach the research team.</li><li>You want to talk to someone besides the research team.</li><li>You have questions about your rights as a research subject.</li><li>You want to get information or provide input about this research.</li></ul><p>",0,,,,NA,NA,NA,NA,NA,NA,,NA,,,,,,,NA,,NA,,,,,,,,,,,NA,NA,NA,NA,NA,NA,NA,NA,NA,NA,NA,NA,NA,NA,NA,NA,NA,NA,NA,NA,NA,NA,NA,NA,NA,NA,NA,NA,NA,NA,NA,NA,NA,NA,NA,NA,NA,NA,NA,NA,NA,NA,NA,NA,NA,NA,NA,NA,NA,NA,NA,NA,NA,NA,NA,NA,NA,NA,NA,NA,NA,NA,NA,NA,NA,NA,NA,NA,NA,NA,NA,NA,NA,NA,NA,NA,NA,NA,NA,NA,NA,NA,NA,NA,NA,NA,NA,NA,NA,NA,NA,NA,,,NA
html-button-response,4,25753,0.0-1.0-3.0,7ynpv8c34psnjr1,0,Windows,Chrome,5624.985000002198,"<p><b><u>ONLINE CONSENT FORM (PAGE 2 OF 3)</u></b><p><p><b>Why are we doing this research?</b></p><p>The purpose of the research is to better understand how different attitudes shape people's behavior and decision preferences.</p><p><b>How long will the research last?</b></p><p>Your participation in this study will last for one session with the duration of no longer than 1 hour.</p><p><b>What happens if I say yes, I want to be in this research?</b></p><p>After your consent to participate, you will be asked to indicate your preferences in a series of trials. The specific details and instructions for the task will be communicated by the experimenter prior to the start of the study. Please follow these instructions to the best of your ability. There will be attention checks throughout the study to ensure that you are paying attention and the data collected is valid.</p><p>We will also collect basic demographics from you such as income, education, purchasing behavior, political and altruistic attitudes, and decision-making behavior (such as sensitivity to risk). Remember that all the decisions and choices that you make during this study are your own opinions and preferences. There are no right or wrong answers. Please answer honestly and to the best of your abilities. Participating in this study is no more risky than using an everyday computer.</p>",0,,,,NA,NA,NA,NA,NA,NA,,NA,,,,,,,NA,,NA,,,,,,,,,,,NA,NA,NA,NA,NA,NA,NA,NA,NA,NA,NA,NA,NA,NA,NA,NA,NA,NA,NA,NA,NA,NA,NA,NA,NA,NA,NA,NA,NA,NA,NA,NA,NA,NA,NA,NA,NA,NA,NA,NA,NA,NA,NA,NA,NA,NA,NA,NA,NA,NA,NA,NA,NA,NA,NA,NA,NA,NA,NA,NA,NA,NA,NA,NA,NA,NA,NA,NA,NA,NA,NA,NA,NA,NA,NA,NA,NA,NA,NA,NA,NA,NA,NA,NA,NA,NA,NA,NA,NA,NA,NA,NA,,,NA
html-button-response,5,31986,0.0-1.0-4.0,7ynpv8c34psnjr1,0,Windows,Chrome,5731.694999965839,"<p><b><u>ONLINE CONSENT FORM (PAGE 3 OF 3)</u></b><p><p><b>What happens if I say no, I do not want to be in this research?</b></p><p>You may decide not to take part in the research and it will not be held against you. It will in no way affect your relationship with the study investigators.</p><p><b>What happens if I say yes, but I change my mind later?</b></p><p>If you agree to take part in the research, you can stop at any time, and it will not be held against you. Withdrawal from study or failure to participate will not have any academic consequences to you if you are a student. Furthermore, if you are a student, there are no risks to your student career.</p><p><b>What happens to the information we collect?</b></p><p>Efforts will be made to limit the disclosure of your personal information, including research study records, to people who have a need to review this information. However, the study team cannot promise complete secrecy. For example, although the study team has put in safeguards to protect your information, there is always a potential risk of loss of confidentiality. Temple University IRB may inspect and copy your information to make sure that the study team is following the rules and regulations regarding research and the protection of human subjects.</p><p><b>Stipend/Reimbursement</b></p><p>If you agree to take part in this research, you will be compensated through the survey panel (e.g., mTurk, Qualtrics, SONA) through which you registered, after you complete the survey. However, you should have been informed about the estimated duration and exact compensation prior to registering for the study on the corresponding online forum. If not, you may discontinue at this point.</p>",0,,,,NA,NA,NA,NA,NA,NA,,NA,,,,,,,NA,,NA,,,,,,,,,,,NA,NA,NA,NA,NA,NA,NA,NA,NA,NA,NA,NA,NA,NA,NA,NA,NA,NA,NA,NA,NA,NA,NA,NA,NA,NA,NA,NA,NA,NA,NA,NA,NA,NA,NA,NA,NA,NA,NA,NA,NA,NA,NA,NA,NA,NA,NA,NA,NA,NA,NA,NA,NA,NA,NA,NA,NA,NA,NA,NA,NA,NA,NA,NA,NA,NA,NA,NA,NA,NA,NA,NA,NA,NA,NA,NA,NA,NA,NA,NA,NA,NA,NA,NA,NA,NA,NA,NA,NA,NA,NA,NA,,,NA
html-button-response,6,40435,0.0-1.0-5.0,7ynpv8c34psnjr1,0,Windows,Chrome,7947.1100000082515,"<p>By clicking <b>'Continue'</b> below, you <b>consent</b> to participating in this research.</p>",0,,,,NA,NA,NA,NA,NA,NA,,NA,,,,,,,NA,,NA,,,,,,,,,,,NA,NA,NA,NA,NA,NA,NA,NA,NA,NA,NA,NA,NA,NA,NA,NA,NA,NA,NA,NA,NA,NA,NA,NA,NA,NA,NA,NA,NA,NA,NA,NA,NA,NA,NA,NA,NA,NA,NA,NA,NA,NA,NA,NA,NA,NA,NA,NA,NA,NA,NA,NA,NA,NA,NA,NA,NA,NA,NA,NA,NA,NA,NA,NA,NA,NA,NA,NA,NA,NA,NA,NA,NA,NA,NA,NA,NA,NA,NA,NA,NA,NA,NA,NA,NA,NA,NA,NA,NA,NA,NA,NA,,,NA
html-button-response,7,49769,0.0-2.0-0.0,7ynpv8c34psnjr1,0,Windows,Chrome,8831.604999955744,"<p>In the first part of the experiment, you will view a series of faces and rate whether or not each face looks angry, disgusted, fearful, happy, sad, or surprised.</p><p>Sometimes you may be able to see the entire face. Other times you may only be able to see the top or the bottom half of the face.</p>",0,,,,NA,NA,NA,NA,NA,NA,,NA,,,,,,,NA,,NA,,,,,,,,,,,NA,NA,NA,NA,NA,NA,NA,NA,NA,NA,NA,NA,NA,NA,NA,NA,NA,NA,NA,NA,NA,NA,NA,NA,NA,NA,NA,NA,NA,NA,NA,NA,NA,NA,NA,NA,NA,NA,NA,NA,NA,NA,NA,NA,NA,NA,NA,NA,NA,NA,NA,NA,NA,NA,NA,NA,NA,NA,NA,NA,NA,NA,NA,NA,NA,NA,NA,NA,NA,NA,NA,NA,NA,NA,NA,NA,NA,NA,NA,NA,NA,NA,NA,NA,NA,NA,NA,NA,NA,NA,NA,NA,,,NA
html-button-response,8,55485,0.0-2.0-1.0,7ynpv8c34psnjr1,0,Windows,Chrome,5207.125000015367,"<p>Before viewing each face, you will briefly see a + sign display in the center of the screen.</p><p>You will then see a face appear and you will press one of two keys to indicate whether or not the face is showing a certain emotion.</p>",0,,,,NA,NA,NA,NA,NA,NA,,NA,,,,,,,NA,,NA,,,,,,,,,,,NA,NA,NA,NA,NA,NA,NA,NA,NA,NA,NA,NA,NA,NA,NA,NA,NA,NA,NA,NA,NA,NA,NA,NA,NA,NA,NA,NA,NA,NA,NA,NA,NA,NA,NA,NA,NA,NA,NA,NA,NA,NA,NA,NA,NA,NA,NA,NA,NA,NA,NA,NA,NA,NA,NA,NA,NA,NA,NA,NA,NA,NA,NA,NA,NA,NA,NA,NA,NA,NA,NA,NA,NA,NA,NA,NA,NA,NA,NA,NA,NA,NA,NA,NA,NA,NA,NA,NA,NA,NA,NA,NA,,,NA
html-button-response,9,60392,0.0-2.0-2.0,7ynpv8c34psnjr1,0,Windows,Chrome,4406.380000000354,"<p>Please respond as quickly and accurately as possible when you see each face appear.</p><p>Once the computer has logged your response, the face will disappear and you will see the next + sign display.</p>",0,,,,NA,NA,NA,NA,NA,NA,,NA,,,,,,,NA,,NA,,,,,,,,,,,NA,NA,NA,NA,NA,NA,NA,NA,NA,NA,NA,NA,NA,NA,NA,NA,NA,NA,NA,NA,NA,NA,NA,NA,NA,NA,NA,NA,NA,NA,NA,NA,NA,NA,NA,NA,NA,NA,NA,NA,NA,NA,NA,NA,NA,NA,NA,NA,NA,NA,NA,NA,NA,NA,NA,NA,NA,NA,NA,NA,NA,NA,NA,NA,NA,NA,NA,NA,NA,NA,NA,NA,NA,NA,NA,NA,NA,NA,NA,NA,NA,NA,NA,NA,NA,NA,NA,NA,NA,NA,NA,NA,,,NA
html-button-response,10,65888,0.0-2.0-3.0,7ynpv8c34psnjr1,0,Windows,Chrome,4994.204999995418,<p>You will complete six rounds of the task and each round will last about 2-3 minutes.</p><p>Please click continue when you are ready to begin.</p>,0,,,,NA,NA,NA,NA,NA,NA,,NA,,,,,,,NA,,NA,,,,,,,,,,,NA,NA,NA,NA,NA,NA,NA,NA,NA,NA,NA,NA,NA,NA,NA,NA,NA,NA,NA,NA,NA,NA,NA,NA,NA,NA,NA,NA,NA,NA,NA,NA,NA,NA,NA,NA,NA,NA,NA,NA,NA,NA,NA,NA,NA,NA,NA,NA,NA,NA,NA,NA,NA,NA,NA,NA,NA,NA,NA,NA,NA,NA,NA,NA,NA,NA,NA,NA,NA,NA,NA,NA,NA,NA,NA,NA,NA,NA,NA,NA,NA,NA,NA,NA,NA,NA,NA,NA,NA,NA,NA,NA,,,NA
html-button-response,11,87700,0.0-3.0-0.0,7ynpv8c34psnjr1,0,Windows,Chrome,21310.279999976046,"<p>This round, you will rate whether each face looks <b>sad</b> or not.</p><p>If the face looks <b>sad</b>, press the letter <b>P</b>. If the face does <b>NOT</b> look sad, press the letter <b>Q</b>.</p><p>Please respond as quickly and accurately as possible when you see each face appear.</p><p>Click continue when you are ready to start this round.</p>",0,,,,NA,NA,NA,NA,NA,NA,,NA,,,,,,,NA,,NA,,,,,,,,,,,NA,NA,NA,NA,NA,NA,NA,NA,NA,NA,NA,NA,NA,NA,NA,NA,NA,NA,NA,NA,NA,NA,NA,NA,NA,NA,NA,NA,NA,NA,NA,NA,NA,NA,NA,NA,NA,NA,NA,NA,NA,NA,NA,NA,NA,NA,NA,NA,NA,NA,NA,NA,NA,NA,NA,NA,NA,NA,NA,NA,NA,NA,NA,NA,NA,NA,NA,NA,NA,NA,NA,NA,NA,NA,NA,NA,NA,NA,NA,NA,NA,NA,NA,NA,NA,NA,NA,NA,NA,NA,NA,NA,,,NA
survey-multi-choice,12,96923,0.0-3.0-1.0,7ynpv8c34psnjr1,0,Windows,Chrome,8721.120000001974,,NA,"{""CheckEmotionRating"":""sad""}",[0],instructionChecks,TRUE,NA,NA,NA,NA,NA,,NA,,,,,,,NA,,NA,,,,,,,,,,,NA,NA,NA,NA,NA,NA,NA,NA,NA,NA,NA,NA,NA,NA,NA,NA,NA,NA,NA,NA,NA,NA,NA,NA,NA,NA,NA,NA,NA,NA,NA,NA,NA,NA,NA,NA,NA,NA,NA,NA,NA,NA,NA,NA,NA,NA,NA,NA,NA,NA,NA,NA,NA,NA,NA,NA,NA,NA,NA,NA,NA,NA,NA,NA,NA,NA,NA,NA,NA,NA,NA,NA,NA,NA,NA,NA,NA,NA,NA,NA,NA,NA,NA,NA,NA,NA,NA,NA,NA,NA,NA,NA,,,NA
survey-html-form,13,103379,0.0-3.0-2.0,7ynpv8c34psnjr1,0,Windows,Chrome,5954.355000052601,,NA,"{""checkKeyYes"":""q"",""checkKeyNo"":""p""}",,instructionChecks,NA,FALSE,FALSE,NA,NA,NA,,NA,,,,,,,NA,,NA,,,,,,,,,,,NA,NA,NA,NA,NA,NA,NA,NA,NA,NA,NA,NA,NA,NA,NA,NA,NA,NA,NA,NA,NA,NA,NA,NA,NA,NA,NA,NA,NA,NA,NA,NA,NA,NA,NA,NA,NA,NA,NA,NA,NA,NA,NA,NA,NA,NA,NA,NA,NA,NA,NA,NA,NA,NA,NA,NA,NA,NA,NA,NA,NA,NA,NA,NA,NA,NA,NA,NA,NA,NA,NA,NA,NA,NA,NA,NA,NA,NA,NA,NA,NA,NA,NA,NA,NA,NA,NA,NA,NA,NA,NA,NA,,,NA
html-button-response,14,111429,0.0-3.1-0.1,7ynpv8c34psnjr1,0,Windows,Chrome,7547.819999977946,"<p>This round, you will rate whether each face looks <b>sad</b> or not.</p><p>If the face looks <b>sad</b>, press the letter <b>P</b>. If the face does <b>NOT</b> look sad, press the letter <b>Q</b>.</p><p>Please respond as quickly and accurately as possible when you see each face appear.</p><p>Click continue when you are ready to start this round.</p>",0,,,,NA,NA,NA,NA,NA,NA,,NA,,,,,,,NA,,NA,,,,,,,,,,,NA,NA,NA,NA,NA,NA,NA,NA,NA,NA,NA,NA,NA,NA,NA,NA,NA,NA,NA,NA,NA,NA,NA,NA,NA,NA,NA,NA,NA,NA,NA,NA,NA,NA,NA,NA,NA,NA,NA,NA,NA,NA,NA,NA,NA,NA,NA,NA,NA,NA,NA,NA,NA,NA,NA,NA,NA,NA,NA,NA,NA,NA,NA,NA,NA,NA,NA,NA,NA,NA,NA,NA,NA,NA,NA,NA,NA,NA,NA,NA,NA,NA,NA,NA,NA,NA,NA,NA,NA,NA,NA,NA,,,NA
survey-multi-choice,15,115426,0.0-3.1-1.1,7ynpv8c34psnjr1,0,Windows,Chrome,3495.4849999630824,,NA,"{""CheckEmotionRating"":""sad""}",[0],instructionChecks,TRUE,NA,NA,NA,NA,NA,,NA,,,,,,,NA,,NA,,,,,,,,,,,NA,NA,NA,NA,NA,NA,NA,NA,NA,NA,NA,NA,NA,NA,NA,NA,NA,NA,NA,NA,NA,NA,NA,NA,NA,NA,NA,NA,NA,NA,NA,NA,NA,NA,NA,NA,NA,NA,NA,NA,NA,NA,NA,NA,NA,NA,NA,NA,NA,NA,NA,NA,NA,NA,NA,NA,NA,NA,NA,NA,NA,NA,NA,NA,NA,NA,NA,NA,NA,NA,NA,NA,NA,NA,NA,NA,NA,NA,NA,NA,NA,NA,NA,NA,NA,NA,NA,NA,NA,NA,NA,NA,,,NA
survey-html-form,16,120790,0.0-3.1-2.1,7ynpv8c34psnjr1,0,Windows,Chrome,4861.5800000261515,,NA,"{""checkKeyYes"":""q"",""checkKeyNo"":""p""}",,instructionChecks,NA,FALSE,FALSE,NA,NA,NA,,NA,,,,,,,NA,,NA,,,,,,,,,,,NA,NA,NA,NA,NA,NA,NA,NA,NA,NA,NA,NA,NA,NA,NA,NA,NA,NA,NA,NA,NA,NA,NA,NA,NA,NA,NA,NA,NA,NA,NA,NA,NA,NA,NA,NA,NA,NA,NA,NA,NA,NA,NA,NA,NA,NA,NA,NA,NA,NA,NA,NA,NA,NA,NA,NA,NA,NA,NA,NA,NA,NA,NA,NA,NA,NA,NA,NA,NA,NA,NA,NA,NA,NA,NA,NA,NA,NA,NA,NA,NA,NA,NA,NA,NA,NA,NA,NA,NA,NA,NA,NA,,,NA
html-button-response,17,123350,0.0-3.2-0.2,7ynpv8c34psnjr1,0,Windows,Chrome,2057.005000009667,"<p>This round, you will rate whether each face looks <b>sad</b> or not.</p><p>If the face looks <b>sad</b>, press the letter <b>P</b>. If the face does <b>NOT</b> look sad, press the letter <b>Q</b>.</p><p>Please respond as quickly and accurately as possible when you see each face appear.</p><p>Click continue when you are ready to start this round.</p>",0,,,,NA,NA,NA,NA,NA,NA,,NA,,,,,,,NA,,NA,,,,,,,,,,,NA,NA,NA,NA,NA,NA,NA,NA,NA,NA,NA,NA,NA,NA,NA,NA,NA,NA,NA,NA,NA,NA,NA,NA,NA,NA,NA,NA,NA,NA,NA,NA,NA,NA,NA,NA,NA,NA,NA,NA,NA,NA,NA,NA,NA,NA,NA,NA,NA,NA,NA,NA,NA,NA,NA,NA,NA,NA,NA,NA,NA,NA,NA,NA,NA,NA,NA,NA,NA,NA,NA,NA,NA,NA,NA,NA,NA,NA,NA,NA,NA,NA,NA,NA,NA,NA,NA,NA,NA,NA,NA,NA,,,NA
survey-multi-choice,18,126139,0.0-3.2-1.2,7ynpv8c34psnjr1,0,Windows,Chrome,2288.2149999495596,,NA,"{""CheckEmotionRating"":""sad""}",[0],instructionChecks,TRUE,NA,NA,NA,NA,NA,,NA,,,,,,,NA,,NA,,,,,,,,,,,NA,NA,NA,NA,NA,NA,NA,NA,NA,NA,NA,NA,NA,NA,NA,NA,NA,NA,NA,NA,NA,NA,NA,NA,NA,NA,NA,NA,NA,NA,NA,NA,NA,NA,NA,NA,NA,NA,NA,NA,NA,NA,NA,NA,NA,NA,NA,NA,NA,NA,NA,NA,NA,NA,NA,NA,NA,NA,NA,NA,NA,NA,NA,NA,NA,NA,NA,NA,NA,NA,NA,NA,NA,NA,NA,NA,NA,NA,NA,NA,NA,NA,NA,NA,NA,NA,NA,NA,NA,NA,NA,NA,,,NA
survey-html-form,19,130831,0.0-3.2-2.2,7ynpv8c34psnjr1,0,Windows,Chrome,4190.249999985099,,NA,"{""checkKeyYes"":""p"",""checkKeyNo"":""q""}",,instructionChecks,NA,TRUE,TRUE,NA,NA,NA,,NA,,,,,,,NA,,NA,,,,,,,,,,,NA,NA,NA,NA,NA,NA,NA,NA,NA,NA,NA,NA,NA,NA,NA,NA,NA,NA,NA,NA,NA,NA,NA,NA,NA,NA,NA,NA,NA,NA,NA,NA,NA,NA,NA,NA,NA,NA,NA,NA,NA,NA,NA,NA,NA,NA,NA,NA,NA,NA,NA,NA,NA,NA,NA,NA,NA,NA,NA,NA,NA,NA,NA,NA,NA,NA,NA,NA,NA,NA,NA,NA,NA,NA,NA,NA,NA,NA,NA,NA,NA,NA,NA,NA,NA,NA,NA,NA,NA,NA,NA,NA,,,NA
html-keyboard-response,20,132334,0.0-4.0-0.0,7ynpv8c34psnjr1,0,Windows,Chrome,NA,+,NA,,,fixation,NA,NA,NA,NA,NA,NA,,NA,,,,,,,NA,,NA,,,,,,,,,,,NA,NA,NA,NA,NA,NA,NA,NA,NA,NA,NA,NA,NA,NA,NA,NA,NA,NA,NA,NA,NA,NA,NA,NA,NA,NA,NA,NA,NA,NA,NA,NA,NA,NA,NA,NA,NA,NA,NA,NA,NA,NA,NA,NA,NA,NA,NA,NA,NA,NA,NA,NA,NA,NA,NA,NA,NA,NA,NA,NA,NA,NA,NA,NA,NA,NA,NA,NA,NA,NA,NA,NA,NA,NA,NA,NA,NA,NA,NA,NA,NA,NA,NA,NA,NA,NA,NA,NA,NA,NA,NA,NA,,,NA
image-keyboard-response,21,133759,0.0-4.0-1.0,7ynpv8c34psnjr1,0,Windows,Chrome,1424.204999988433,_faces/WF05_H_X.jpg,NA,,,emotionRatingFaceWindow,NA,NA,NA,80,1,0,sad,0,WF05_H_X,WF05,W,F,H,X,1,,NA,,,,,,,,,,,NA,NA,NA,NA,NA,NA,NA,NA,NA,NA,NA,NA,NA,NA,NA,NA,NA,NA,NA,NA,NA,NA,NA,NA,NA,NA,NA,NA,NA,NA,NA,NA,NA,NA,NA,NA,NA,NA,NA,NA,NA,NA,NA,NA,NA,NA,NA,NA,NA,NA,NA,NA,NA,NA,NA,NA,NA,NA,NA,NA,NA,NA,NA,NA,NA,NA,NA,NA,NA,NA,NA,NA,NA,NA,NA,NA,NA,NA,NA,NA,NA,NA,NA,NA,NA,NA,NA,NA,NA,NA,NA,NA,,,NA
html-keyboard-response,22,134762,0.0-4.0-0.1,7ynpv8c34psnjr1,0,Windows,Chrome,NA,+,NA,,,fixation,NA,NA,NA,NA,NA,NA,,NA,,,,,,,NA,,NA,,,,,,,,,,,NA,NA,NA,NA,NA,NA,NA,NA,NA,NA,NA,NA,NA,NA,NA,NA,NA,NA,NA,NA,NA,NA,NA,NA,NA,NA,NA,NA,NA,NA,NA,NA,NA,NA,NA,NA,NA,NA,NA,NA,NA,NA,NA,NA,NA,NA,NA,NA,NA,NA,NA,NA,NA,NA,NA,NA,NA,NA,NA,NA,NA,NA,NA,NA,NA,NA,NA,NA,NA,NA,NA,NA,NA,NA,NA,NA,NA,NA,NA,NA,NA,NA,NA,NA,NA,NA,NA,NA,NA,NA,NA,NA,,,NA
image-keyboard-response,23,136358,0.0-4.0-1.1,7ynpv8c34psnjr1,0,Windows,Chrome,1595.694999967236,_faces/WF05_H_L.jpg,NA,,,emotionRatingFaceWindow,NA,NA,NA,81,1,0,sad,1,WF05_H_L,WF05,W,F,H,L,0,,NA,,,,,,,,,,,NA,NA,NA,NA,NA,NA,NA,NA,NA,NA,NA,NA,NA,NA,NA,NA,NA,NA,NA,NA,NA,NA,NA,NA,NA,NA,NA,NA,NA,NA,NA,NA,NA,NA,NA,NA,NA,NA,NA,NA,NA,NA,NA,NA,NA,NA,NA,NA,NA,NA,NA,NA,NA,NA,NA,NA,NA,NA,NA,NA,NA,NA,NA,NA,NA,NA,NA,NA,NA,NA,NA,NA,NA,NA,NA,NA,NA,NA,NA,NA,NA,NA,NA,NA,NA,NA,NA,NA,NA,NA,NA,NA,,,NA
html-keyboard-response,24,137362,0.0-4.0-0.2,7ynpv8c34psnjr1,0,Windows,Chrome,NA,+,NA,,,fixation,NA,NA,NA,NA,NA,NA,,NA,,,,,,,NA,,NA,,,,,,,,,,,NA,NA,NA,NA,NA,NA,NA,NA,NA,NA,NA,NA,NA,NA,NA,NA,NA,NA,NA,NA,NA,NA,NA,NA,NA,NA,NA,NA,NA,NA,NA,NA,NA,NA,NA,NA,NA,NA,NA,NA,NA,NA,NA,NA,NA,NA,NA,NA,NA,NA,NA,NA,NA,NA,NA,NA,NA,NA,NA,NA,NA,NA,NA,NA,NA,NA,NA,NA,NA,NA,NA,NA,NA,NA,NA,NA,NA,NA,NA,NA,NA,NA,NA,NA,NA,NA,NA,NA,NA,NA,NA,NA,,,NA
image-keyboard-response,25,138374,0.0-4.0-1.2,7ynpv8c34psnjr1,0,Windows,Chrome,1011.1599999945611,_faces/BF15_A_L.jpg,NA,,,emotionRatingFaceWindow,NA,NA,NA,81,1,0,sad,2,BF15_A_L,BF15,B,F,A,L,0,,NA,,,,,,,,,,,NA,NA,NA,NA,NA,NA,NA,NA,NA,NA,NA,NA,NA,NA,NA,NA,NA,NA,NA,NA,NA,NA,NA,NA,NA,NA,NA,NA,NA,NA,NA,NA,NA,NA,NA,NA,NA,NA,NA,NA,NA,NA,NA,NA,NA,NA,NA,NA,NA,NA,NA,NA,NA,NA,NA,NA,NA,NA,NA,NA,NA,NA,NA,NA,NA,NA,NA,NA,NA,NA,NA,NA,NA,NA,NA,NA,NA,NA,NA,NA,NA,NA,NA,NA,NA,NA,NA,NA,NA,NA,NA,NA,,,NA
html-keyboard-response,26,139375,0.0-4.0-0.3,7ynpv8c34psnjr1,0,Windows,Chrome,NA,+,NA,,,fixation,NA,NA,NA,NA,NA,NA,,NA,,,,,,,NA,,NA,,,,,,,,,,,NA,NA,NA,NA,NA,NA,NA,NA,NA,NA,NA,NA,NA,NA,NA,NA,NA,NA,NA,NA,NA,NA,NA,NA,NA,NA,NA,NA,NA,NA,NA,NA,NA,NA,NA,NA,NA,NA,NA,NA,NA,NA,NA,NA,NA,NA,NA,NA,NA,NA,NA,NA,NA,NA,NA,NA,NA,NA,NA,NA,NA,NA,NA,NA,NA,NA,NA,NA,NA,NA,NA,NA,NA,NA,NA,NA,NA,NA,NA,NA,NA,NA,NA,NA,NA,NA,NA,NA,NA,NA,NA,NA,,,NA
image-keyboard-response,27,140086,0.0-4.0-1.3,7ynpv8c34psnjr1,0,Windows,Chrome,711.1450000084005,_faces/WM13_S_X.jpg,NA,,,emotionRatingFaceWindow,NA,NA,NA,80,1,0,sad,3,WM13_S_X,WM13,W,M,S,X,1,,NA,,,,,,,,,,,NA,NA,NA,NA,NA,NA,NA,NA,NA,NA,NA,NA,NA,NA,NA,NA,NA,NA,NA,NA,NA,NA,NA,NA,NA,NA,NA,NA,NA,NA,NA,NA,NA,NA,NA,NA,NA,NA,NA,NA,NA,NA,NA,NA,NA,NA,NA,NA,NA,NA,NA,NA,NA,NA,NA,NA,NA,NA,NA,NA,NA,NA,NA,NA,NA,NA,NA,NA,NA,NA,NA,NA,NA,NA,NA,NA,NA,NA,NA,NA,NA,NA,NA,NA,NA,NA,NA,NA,NA,NA,NA,NA,,,NA
html-keyboard-response,28,141099,0.0-4.0-0.4,7ynpv8c34psnjr1,0,Windows,Chrome,NA,+,NA,,,fixation,NA,NA,NA,NA,NA,NA,,NA,,,,,,,NA,,NA,,,,,,,,,,,NA,NA,NA,NA,NA,NA,NA,NA,NA,NA,NA,NA,NA,NA,NA,NA,NA,NA,NA,NA,NA,NA,NA,NA,NA,NA,NA,NA,NA,NA,NA,NA,NA,NA,NA,NA,NA,NA,NA,NA,NA,NA,NA,NA,NA,NA,NA,NA,NA,NA,NA,NA,NA,NA,NA,NA,NA,NA,NA,NA,NA,NA,NA,NA,NA,NA,NA,NA,NA,NA,NA,NA,NA,NA,NA,NA,NA,NA,NA,NA,NA,NA,NA,NA,NA,NA,NA,NA,NA,NA,NA,NA,,,NA
image-keyboard-response,29,141943,0.0-4.0-1.4,7ynpv8c34psnjr1,0,Windows,Chrome,842.6050000125542,_faces/HF04_H_L.jpg,NA,,,emotionRatingFaceWindow,NA,NA,NA,81,1,0,sad,4,HF04_H_L,HF04,H,F,H,L,0,,NA,,,,,,,,,,,NA,NA,NA,NA,NA,NA,NA,NA,NA,NA,NA,NA,NA,NA,NA,NA,NA,NA,NA,NA,NA,NA,NA,NA,NA,NA,NA,NA,NA,NA,NA,NA,NA,NA,NA,NA,NA,NA,NA,NA,NA,NA,NA,NA,NA,NA,NA,NA,NA,NA,NA,NA,NA,NA,NA,NA,NA,NA,NA,NA,NA,NA,NA,NA,NA,NA,NA,NA,NA,NA,NA,NA,NA,NA,NA,NA,NA,NA,NA,NA,NA,NA,NA,NA,NA,NA,NA,NA,NA,NA,NA,NA,,,NA
html-keyboard-response,30,142945,0.0-4.0-0.5,7ynpv8c34psnjr1,0,Windows,Chrome,NA,+,NA,,,fixation,NA,NA,NA,NA,NA,NA,,NA,,,,,,,NA,,NA,,,,,,,,,,,NA,NA,NA,NA,NA,NA,NA,NA,NA,NA,NA,NA,NA,NA,NA,NA,NA,NA,NA,NA,NA,NA,NA,NA,NA,NA,NA,NA,NA,NA,NA,NA,NA,NA,NA,NA,NA,NA,NA,NA,NA,NA,NA,NA,NA,NA,NA,NA,NA,NA,NA,NA,NA,NA,NA,NA,NA,NA,NA,NA,NA,NA,NA,NA,NA,NA,NA,NA,NA,NA,NA,NA,NA,NA,NA,NA,NA,NA,NA,NA,NA,NA,NA,NA,NA,NA,NA,NA,NA,NA,NA,NA,,,NA
image-keyboard-response,31,143823,0.0-4.0-1.5,7ynpv8c34psnjr1,0,Windows,Chrome,877.0549999899231,_faces/AF06_A_L.jpg,NA,,,emotionRatingFaceWindow,NA,NA,NA,81,1,0,sad,5,AF06_A_L,AF06,A,F,A,L,0,,NA,,,,,,,,,,,NA,NA,NA,NA,NA,NA,NA,NA,NA,NA,NA,NA,NA,NA,NA,NA,NA,NA,NA,NA,NA,NA,NA,NA,NA,NA,NA,NA,NA,NA,NA,NA,NA,NA,NA,NA,NA,NA,NA,NA,NA,NA,NA,NA,NA,NA,NA,NA,NA,NA,NA,NA,NA,NA,NA,NA,NA,NA,NA,NA,NA,NA,NA,NA,NA,NA,NA,NA,NA,NA,NA,NA,NA,NA,NA,NA,NA,NA,NA,NA,NA,NA,NA,NA,NA,NA,NA,NA,NA,NA,NA,NA,,,NA
html-keyboard-response,32,144824,0.0-4.0-0.6,7ynpv8c34psnjr1,0,Windows,Chrome,NA,+,NA,,,fixation,NA,NA,NA,NA,NA,NA,,NA,,,,,,,NA,,NA,,,,,,,,,,,NA,NA,NA,NA,NA,NA,NA,NA,NA,NA,NA,NA,NA,NA,NA,NA,NA,NA,NA,NA,NA,NA,NA,NA,NA,NA,NA,NA,NA,NA,NA,NA,NA,NA,NA,NA,NA,NA,NA,NA,NA,NA,NA,NA,NA,NA,NA,NA,NA,NA,NA,NA,NA,NA,NA,NA,NA,NA,NA,NA,NA,NA,NA,NA,NA,NA,NA,NA,NA,NA,NA,NA,NA,NA,NA,NA,NA,NA,NA,NA,NA,NA,NA,NA,NA,NA,NA,NA,NA,NA,NA,NA,,,NA
image-keyboard-response,33,145534,0.0-4.0-1.6,7ynpv8c34psnjr1,0,Windows,Chrome,709.35499999905,_faces/BF10_S_X.jpg,NA,,,emotionRatingFaceWindow,NA,NA,NA,80,1,0,sad,6,BF10_S_X,BF10,B,F,S,X,1,,NA,,,,,,,,,,,NA,NA,NA,NA,NA,NA,NA,NA,NA,NA,NA,NA,NA,NA,NA,NA,NA,NA,NA,NA,NA,NA,NA,NA,NA,NA,NA,NA,NA,NA,NA,NA,NA,NA,NA,NA,NA,NA,NA,NA,NA,NA,NA,NA,NA,NA,NA,NA,NA,NA,NA,NA,NA,NA,NA,NA,NA,NA,NA,NA,NA,NA,NA,NA,NA,NA,NA,NA,NA,NA,NA,NA,NA,NA,NA,NA,NA,NA,NA,NA,NA,NA,NA,NA,NA,NA,NA,NA,NA,NA,NA,NA,,,NA
html-keyboard-response,34,146534,0.0-4.0-0.7,7ynpv8c34psnjr1,0,Windows,Chrome,NA,+,NA,,,fixation,NA,NA,NA,NA,NA,NA,,NA,,,,,,,NA,,NA,,,,,,,,,,,NA,NA,NA,NA,NA,NA,NA,NA,NA,NA,NA,NA,NA,NA,NA,NA,NA,NA,NA,NA,NA,NA,NA,NA,NA,NA,NA,NA,NA,NA,NA,NA,NA,NA,NA,NA,NA,NA,NA,NA,NA,NA,NA,NA,NA,NA,NA,NA,NA,NA,NA,NA,NA,NA,NA,NA,NA,NA,NA,NA,NA,NA,NA,NA,NA,NA,NA,NA,NA,NA,NA,NA,NA,NA,NA,NA,NA,NA,NA,NA,NA,NA,NA,NA,NA,NA,NA,NA,NA,NA,NA,NA,,,NA
image-keyboard-response,35,147150,0.0-4.0-1.7,7ynpv8c34psnjr1,0,Windows,Chrome,615.0900000357069,_faces/HF05_R_L.jpg,NA,,,emotionRatingFaceWindow,NA,NA,NA,81,1,0,sad,7,HF05_R_L,HF05,H,F,R,L,0,,NA,,,,,,,,,,,NA,NA,NA,NA,NA,NA,NA,NA,NA,NA,NA,NA,NA,NA,NA,NA,NA,NA,NA,NA,NA,NA,NA,NA,NA,NA,NA,NA,NA,NA,NA,NA,NA,NA,NA,NA,NA,NA,NA,NA,NA,NA,NA,NA,NA,NA,NA,NA,NA,NA,NA,NA,NA,NA,NA,NA,NA,NA,NA,NA,NA,NA,NA,NA,NA,NA,NA,NA,NA,NA,NA,NA,NA,NA,NA,NA,NA,NA,NA,NA,NA,NA,NA,NA,NA,NA,NA,NA,NA,NA,NA,NA,,,NA
html-keyboard-response,36,148152,0.0-4.0-0.8,7ynpv8c34psnjr1,0,Windows,Chrome,NA,+,NA,,,fixation,NA,NA,NA,NA,NA,NA,,NA,,,,,,,NA,,NA,,,,,,,,,,,NA,NA,NA,NA,NA,NA,NA,NA,NA,NA,NA,NA,NA,NA,NA,NA,NA,NA,NA,NA,NA,NA,NA,NA,NA,NA,NA,NA,NA,NA,NA,NA,NA,NA,NA,NA,NA,NA,NA,NA,NA,NA,NA,NA,NA,NA,NA,NA,NA,NA,NA,NA,NA,NA,NA,NA,NA,NA,NA,NA,NA,NA,NA,NA,NA,NA,NA,NA,NA,NA,NA,NA,NA,NA,NA,NA,NA,NA,NA,NA,NA,NA,NA,NA,NA,NA,NA,NA,NA,NA,NA,NA,,,NA
image-keyboard-response,37,149007,0.0-4.0-1.8,7ynpv8c34psnjr1,0,Windows,Chrome,854.0350000257604,_faces/HM08_A_X.jpg,NA,,,emotionRatingFaceWindow,NA,NA,NA,81,1,0,sad,8,HM08_A_X,HM08,H,M,A,X,0,,NA,,,,,,,,,,,NA,NA,NA,NA,NA,NA,NA,NA,NA,NA,NA,NA,NA,NA,NA,NA,NA,NA,NA,NA,NA,NA,NA,NA,NA,NA,NA,NA,NA,NA,NA,NA,NA,NA,NA,NA,NA,NA,NA,NA,NA,NA,NA,NA,NA,NA,NA,NA,NA,NA,NA,NA,NA,NA,NA,NA,NA,NA,NA,NA,NA,NA,NA,NA,NA,NA,NA,NA,NA,NA,NA,NA,NA,NA,NA,NA,NA,NA,NA,NA,NA,NA,NA,NA,NA,NA,NA,NA,NA,NA,NA,NA,,,NA
html-keyboard-response,38,150008,0.0-4.0-0.9,7ynpv8c34psnjr1,0,Windows,Chrome,NA,+,NA,,,fixation,NA,NA,NA,NA,NA,NA,,NA,,,,,,,NA,,NA,,,,,,,,,,,NA,NA,NA,NA,NA,NA,NA,NA,NA,NA,NA,NA,NA,NA,NA,NA,NA,NA,NA,NA,NA,NA,NA,NA,NA,NA,NA,NA,NA,NA,NA,NA,NA,NA,NA,NA,NA,NA,NA,NA,NA,NA,NA,NA,NA,NA,NA,NA,NA,NA,NA,NA,NA,NA,NA,NA,NA,NA,NA,NA,NA,NA,NA,NA,NA,NA,NA,NA,NA,NA,NA,NA,NA,NA,NA,NA,NA,NA,NA,NA,NA,NA,NA,NA,NA,NA,NA,NA,NA,NA,NA,NA,,,NA
image-keyboard-response,39,150862,0.0-4.0-1.9,7ynpv8c34psnjr1,0,Windows,Chrome,853.2450000056997,_faces/BF15_A_U.jpg,NA,,,emotionRatingFaceWindow,NA,NA,NA,81,1,0,sad,9,BF15_A_U,BF15,B,F,A,U,0,,NA,,,,,,,,,,,NA,NA,NA,NA,NA,NA,NA,NA,NA,NA,NA,NA,NA,NA,NA,NA,NA,NA,NA,NA,NA,NA,NA,NA,NA,NA,NA,NA,NA,NA,NA,NA,NA,NA,NA,NA,NA,NA,NA,NA,NA,NA,NA,NA,NA,NA,NA,NA,NA,NA,NA,NA,NA,NA,NA,NA,NA,NA,NA,NA,NA,NA,NA,NA,NA,NA,NA,NA,NA,NA,NA,NA,NA,NA,NA,NA,NA,NA,NA,NA,NA,NA,NA,NA,NA,NA,NA,NA,NA,NA,NA,NA,,,NA
html-keyboard-response,40,151863,0.0-4.0-0.10,7ynpv8c34psnjr1,0,Windows,Chrome,NA,+,NA,,,fixation,NA,NA,NA,NA,NA,NA,,NA,,,,,,,NA,,NA,,,,,,,,,,,NA,NA,NA,NA,NA,NA,NA,NA,NA,NA,NA,NA,NA,NA,NA,NA,NA,NA,NA,NA,NA,NA,NA,NA,NA,NA,NA,NA,NA,NA,NA,NA,NA,NA,NA,NA,NA,NA,NA,NA,NA,NA,NA,NA,NA,NA,NA,NA,NA,NA,NA,NA,NA,NA,NA,NA,NA,NA,NA,NA,NA,NA,NA,NA,NA,NA,NA,NA,NA,NA,NA,NA,NA,NA,NA,NA,NA,NA,NA,NA,NA,NA,NA,NA,NA,NA,NA,NA,NA,NA,NA,NA,,,NA
image-keyboard-response,41,152502,0.0-4.0-1.10,7ynpv8c34psnjr1,0,Windows,Chrome,638.4550000075251,_faces/BM16_D_X.jpg,NA,,,emotionRatingFaceWindow,NA,NA,NA,81,1,0,sad,10,BM16_D_X,BM16,B,M,D,X,0,,NA,,,,,,,,,,,NA,NA,NA,NA,NA,NA,NA,NA,NA,NA,NA,NA,NA,NA,NA,NA,NA,NA,NA,NA,NA,NA,NA,NA,NA,NA,NA,NA,NA,NA,NA,NA,NA,NA,NA,NA,NA,NA,NA,NA,NA,NA,NA,NA,NA,NA,NA,NA,NA,NA,NA,NA,NA,NA,NA,NA,NA,NA,NA,NA,NA,NA,NA,NA,NA,NA,NA,NA,NA,NA,NA,NA,NA,NA,NA,NA,NA,NA,NA,NA,NA,NA,NA,NA,NA,NA,NA,NA,NA,NA,NA,NA,,,NA
html-keyboard-response,42,153503,0.0-4.0-0.11,7ynpv8c34psnjr1,0,Windows,Chrome,NA,+,NA,,,fixation,NA,NA,NA,NA,NA,NA,,NA,,,,,,,NA,,NA,,,,,,,,,,,NA,NA,NA,NA,NA,NA,NA,NA,NA,NA,NA,NA,NA,NA,NA,NA,NA,NA,NA,NA,NA,NA,NA,NA,NA,NA,NA,NA,NA,NA,NA,NA,NA,NA,NA,NA,NA,NA,NA,NA,NA,NA,NA,NA,NA,NA,NA,NA,NA,NA,NA,NA,NA,NA,NA,NA,NA,NA,NA,NA,NA,NA,NA,NA,NA,NA,NA,NA,NA,NA,NA,NA,NA,NA,NA,NA,NA,NA,NA,NA,NA,NA,NA,NA,NA,NA,NA,NA,NA,NA,NA,NA,,,NA
image-keyboard-response,43,154328,0.0-4.0-1.11,7ynpv8c34psnjr1,0,Windows,Chrome,824.1549999802373,_faces/AM11_R_L.jpg,NA,,,emotionRatingFaceWindow,NA,NA,NA,80,1,0,sad,11,AM11_R_L,AM11,A,M,R,L,1,,NA,,,,,,,,,,,NA,NA,NA,NA,NA,NA,NA,NA,NA,NA,NA,NA,NA,NA,NA,NA,NA,NA,NA,NA,NA,NA,NA,NA,NA,NA,NA,NA,NA,NA,NA,NA,NA,NA,NA,NA,NA,NA,NA,NA,NA,NA,NA,NA,NA,NA,NA,NA,NA,NA,NA,NA,NA,NA,NA,NA,NA,NA,NA,NA,NA,NA,NA,NA,NA,NA,NA,NA,NA,NA,NA,NA,NA,NA,NA,NA,NA,NA,NA,NA,NA,NA,NA,NA,NA,NA,NA,NA,NA,NA,NA,NA,,,NA
html-keyboard-response,44,155330,0.0-4.0-0.12,7ynpv8c34psnjr1,0,Windows,Chrome,NA,+,NA,,,fixation,NA,NA,NA,NA,NA,NA,,NA,,,,,,,NA,,NA,,,,,,,,,,,NA,NA,NA,NA,NA,NA,NA,NA,NA,NA,NA,NA,NA,NA,NA,NA,NA,NA,NA,NA,NA,NA,NA,NA,NA,NA,NA,NA,NA,NA,NA,NA,NA,NA,NA,NA,NA,NA,NA,NA,NA,NA,NA,NA,NA,NA,NA,NA,NA,NA,NA,NA,NA,NA,NA,NA,NA,NA,NA,NA,NA,NA,NA,NA,NA,NA,NA,NA,NA,NA,NA,NA,NA,NA,NA,NA,NA,NA,NA,NA,NA,NA,NA,NA,NA,NA,NA,NA,NA,NA,NA,NA,,,NA
image-keyboard-response,45,155934,0.0-4.0-1.12,7ynpv8c34psnjr1,0,Windows,Chrome,603.8449999759905,_faces/WM13_S_L.jpg,NA,,,emotionRatingFaceWindow,NA,NA,NA,80,1,0,sad,12,WM13_S_L,WM13,W,M,S,L,1,,NA,,,,,,,,,,,NA,NA,NA,NA,NA,NA,NA,NA,NA,NA,NA,NA,NA,NA,NA,NA,NA,NA,NA,NA,NA,NA,NA,NA,NA,NA,NA,NA,NA,NA,NA,NA,NA,NA,NA,NA,NA,NA,NA,NA,NA,NA,NA,NA,NA,NA,NA,NA,NA,NA,NA,NA,NA,NA,NA,NA,NA,NA,NA,NA,NA,NA,NA,NA,NA,NA,NA,NA,NA,NA,NA,NA,NA,NA,NA,NA,NA,NA,NA,NA,NA,NA,NA,NA,NA,NA,NA,NA,NA,NA,NA,NA,,,NA
html-keyboard-response,46,156935,0.0-4.0-0.13,7ynpv8c34psnjr1,0,Windows,Chrome,NA,+,NA,,,fixation,NA,NA,NA,NA,NA,NA,,NA,,,,,,,NA,,NA,,,,,,,,,,,NA,NA,NA,NA,NA,NA,NA,NA,NA,NA,NA,NA,NA,NA,NA,NA,NA,NA,NA,NA,NA,NA,NA,NA,NA,NA,NA,NA,NA,NA,NA,NA,NA,NA,NA,NA,NA,NA,NA,NA,NA,NA,NA,NA,NA,NA,NA,NA,NA,NA,NA,NA,NA,NA,NA,NA,NA,NA,NA,NA,NA,NA,NA,NA,NA,NA,NA,NA,NA,NA,NA,NA,NA,NA,NA,NA,NA,NA,NA,NA,NA,NA,NA,NA,NA,NA,NA,NA,NA,NA,NA,NA,,,NA
image-keyboard-response,47,157590,0.0-4.0-1.13,7ynpv8c34psnjr1,0,Windows,Chrome,654.2500000214204,_faces/AM07_H_L.jpg,NA,,,emotionRatingFaceWindow,NA,NA,NA,81,1,0,sad,13,AM07_H_L,AM07,A,M,H,L,0,,NA,,,,,,,,,,,NA,NA,NA,NA,NA,NA,NA,NA,NA,NA,NA,NA,NA,NA,NA,NA,NA,NA,NA,NA,NA,NA,NA,NA,NA,NA,NA,NA,NA,NA,NA,NA,NA,NA,NA,NA,NA,NA,NA,NA,NA,NA,NA,NA,NA,NA,NA,NA,NA,NA,NA,NA,NA,NA,NA,NA,NA,NA,NA,NA,NA,NA,NA,NA,NA,NA,NA,NA,NA,NA,NA,NA,NA,NA,NA,NA,NA,NA,NA,NA,NA,NA,NA,NA,NA,NA,NA,NA,NA,NA,NA,NA,,,NA
html-keyboard-response,48,158591,0.0-4.0-0.14,7ynpv8c34psnjr1,0,Windows,Chrome,NA,+,NA,,,fixation,NA,NA,NA,NA,NA,NA,,NA,,,,,,,NA,,NA,,,,,,,,,,,NA,NA,NA,NA,NA,NA,NA,NA,NA,NA,NA,NA,NA,NA,NA,NA,NA,NA,NA,NA,NA,NA,NA,NA,NA,NA,NA,NA,NA,NA,NA,NA,NA,NA,NA,NA,NA,NA,NA,NA,NA,NA,NA,NA,NA,NA,NA,NA,NA,NA,NA,NA,NA,NA,NA,NA,NA,NA,NA,NA,NA,NA,NA,NA,NA,NA,NA,NA,NA,NA,NA,NA,NA,NA,NA,NA,NA,NA,NA,NA,NA,NA,NA,NA,NA,NA,NA,NA,NA,NA,NA,NA,,,NA
image-keyboard-response,49,159286,0.0-4.0-1.14,7ynpv8c34psnjr1,0,Windows,Chrome,694.8050000355579,_faces/BM16_D_L.jpg,NA,,,emotionRatingFaceWindow,NA,NA,NA,81,1,0,sad,14,BM16_D_L,BM16,B,M,D,L,0,,NA,,,,,,,,,,,NA,NA,NA,NA,NA,NA,NA,NA,NA,NA,NA,NA,NA,NA,NA,NA,NA,NA,NA,NA,NA,NA,NA,NA,NA,NA,NA,NA,NA,NA,NA,NA,NA,NA,NA,NA,NA,NA,NA,NA,NA,NA,NA,NA,NA,NA,NA,NA,NA,NA,NA,NA,NA,NA,NA,NA,NA,NA,NA,NA,NA,NA,NA,NA,NA,NA,NA,NA,NA,NA,NA,NA,NA,NA,NA,NA,NA,NA,NA,NA,NA,NA,NA,NA,NA,NA,NA,NA,NA,NA,NA,NA,,,NA
html-keyboard-response,50,160288,0.0-4.0-0.15,7ynpv8c34psnjr1,0,Windows,Chrome,NA,+,NA,,,fixation,NA,NA,NA,NA,NA,NA,,NA,,,,,,,NA,,NA,,,,,,,,,,,NA,NA,NA,NA,NA,NA,NA,NA,NA,NA,NA,NA,NA,NA,NA,NA,NA,NA,NA,NA,NA,NA,NA,NA,NA,NA,NA,NA,NA,NA,NA,NA,NA,NA,NA,NA,NA,NA,NA,NA,NA,NA,NA,NA,NA,NA,NA,NA,NA,NA,NA,NA,NA,NA,NA,NA,NA,NA,NA,NA,NA,NA,NA,NA,NA,NA,NA,NA,NA,NA,NA,NA,NA,NA,NA,NA,NA,NA,NA,NA,NA,NA,NA,NA,NA,NA,NA,NA,NA,NA,NA,NA,,,NA
image-keyboard-response,51,161070,0.0-4.0-1.15,7ynpv8c34psnjr1,0,Windows,Chrome,781.3149999710731,_faces/BF15_A_X.jpg,NA,,,emotionRatingFaceWindow,NA,NA,NA,81,1,0,sad,15,BF15_A_X,BF15,B,F,A,X,0,,NA,,,,,,,,,,,NA,NA,NA,NA,NA,NA,NA,NA,NA,NA,NA,NA,NA,NA,NA,NA,NA,NA,NA,NA,NA,NA,NA,NA,NA,NA,NA,NA,NA,NA,NA,NA,NA,NA,NA,NA,NA,NA,NA,NA,NA,NA,NA,NA,NA,NA,NA,NA,NA,NA,NA,NA,NA,NA,NA,NA,NA,NA,NA,NA,NA,NA,NA,NA,NA,NA,NA,NA,NA,NA,NA,NA,NA,NA,NA,NA,NA,NA,NA,NA,NA,NA,NA,NA,NA,NA,NA,NA,NA,NA,NA,NA,,,NA
html-keyboard-response,52,162071,0.0-4.0-0.16,7ynpv8c34psnjr1,0,Windows,Chrome,NA,+,NA,,,fixation,NA,NA,NA,NA,NA,NA,,NA,,,,,,,NA,,NA,,,,,,,,,,,NA,NA,NA,NA,NA,NA,NA,NA,NA,NA,NA,NA,NA,NA,NA,NA,NA,NA,NA,NA,NA,NA,NA,NA,NA,NA,NA,NA,NA,NA,NA,NA,NA,NA,NA,NA,NA,NA,NA,NA,NA,NA,NA,NA,NA,NA,NA,NA,NA,NA,NA,NA,NA,NA,NA,NA,NA,NA,NA,NA,NA,NA,NA,NA,NA,NA,NA,NA,NA,NA,NA,NA,NA,NA,NA,NA,NA,NA,NA,NA,NA,NA,NA,NA,NA,NA,NA,NA,NA,NA,NA,NA,,,NA
image-keyboard-response,53,162742,0.0-4.0-1.16,7ynpv8c34psnjr1,0,Windows,Chrome,670.7600000081584,_faces/WM09_R_U.jpg,NA,,,emotionRatingFaceWindow,NA,NA,NA,81,1,0,sad,16,WM09_R_U,WM09,W,M,R,U,0,,NA,,,,,,,,,,,NA,NA,NA,NA,NA,NA,NA,NA,NA,NA,NA,NA,NA,NA,NA,NA,NA,NA,NA,NA,NA,NA,NA,NA,NA,NA,NA,NA,NA,NA,NA,NA,NA,NA,NA,NA,NA,NA,NA,NA,NA,NA,NA,NA,NA,NA,NA,NA,NA,NA,NA,NA,NA,NA,NA,NA,NA,NA,NA,NA,NA,NA,NA,NA,NA,NA,NA,NA,NA,NA,NA,NA,NA,NA,NA,NA,NA,NA,NA,NA,NA,NA,NA,NA,NA,NA,NA,NA,NA,NA,NA,NA,,,NA
html-keyboard-response,54,163743,0.0-4.0-0.17,7ynpv8c34psnjr1,0,Windows,Chrome,NA,+,NA,,,fixation,NA,NA,NA,NA,NA,NA,,NA,,,,,,,NA,,NA,,,,,,,,,,,NA,NA,NA,NA,NA,NA,NA,NA,NA,NA,NA,NA,NA,NA,NA,NA,NA,NA,NA,NA,NA,NA,NA,NA,NA,NA,NA,NA,NA,NA,NA,NA,NA,NA,NA,NA,NA,NA,NA,NA,NA,NA,NA,NA,NA,NA,NA,NA,NA,NA,NA,NA,NA,NA,NA,NA,NA,NA,NA,NA,NA,NA,NA,NA,NA,NA,NA,NA,NA,NA,NA,NA,NA,NA,NA,NA,NA,NA,NA,NA,NA,NA,NA,NA,NA,NA,NA,NA,NA,NA,NA,NA,,,NA
image-keyboard-response,55,164551,0.0-4.0-1.17,7ynpv8c34psnjr1,0,Windows,Chrome,806.8750000093132,_faces/HM08_A_U.jpg,NA,,,emotionRatingFaceWindow,NA,NA,NA,81,1,0,sad,17,HM08_A_U,HM08,H,M,A,U,0,,NA,,,,,,,,,,,NA,NA,NA,NA,NA,NA,NA,NA,NA,NA,NA,NA,NA,NA,NA,NA,NA,NA,NA,NA,NA,NA,NA,NA,NA,NA,NA,NA,NA,NA,NA,NA,NA,NA,NA,NA,NA,NA,NA,NA,NA,NA,NA,NA,NA,NA,NA,NA,NA,NA,NA,NA,NA,NA,NA,NA,NA,NA,NA,NA,NA,NA,NA,NA,NA,NA,NA,NA,NA,NA,NA,NA,NA,NA,NA,NA,NA,NA,NA,NA,NA,NA,NA,NA,NA,NA,NA,NA,NA,NA,NA,NA,,,NA
html-keyboard-response,56,165553,0.0-4.0-0.18,7ynpv8c34psnjr1,0,Windows,Chrome,NA,+,NA,,,fixation,NA,NA,NA,NA,NA,NA,,NA,,,,,,,NA,,NA,,,,,,,,,,,NA,NA,NA,NA,NA,NA,NA,NA,NA,NA,NA,NA,NA,NA,NA,NA,NA,NA,NA,NA,NA,NA,NA,NA,NA,NA,NA,NA,NA,NA,NA,NA,NA,NA,NA,NA,NA,NA,NA,NA,NA,NA,NA,NA,NA,NA,NA,NA,NA,NA,NA,NA,NA,NA,NA,NA,NA,NA,NA,NA,NA,NA,NA,NA,NA,NA,NA,NA,NA,NA,NA,NA,NA,NA,NA,NA,NA,NA,NA,NA,NA,NA,NA,NA,NA,NA,NA,NA,NA,NA,NA,NA,,,NA
image-keyboard-response,57,166479,0.0-4.0-1.18,7ynpv8c34psnjr1,0,Windows,Chrome,924.8849999858066,_faces/AF09_D_L.jpg,NA,,,emotionRatingFaceWindow,NA,NA,NA,81,1,0,sad,18,AF09_D_L,AF09,A,F,D,L,0,,NA,,,,,,,,,,,NA,NA,NA,NA,NA,NA,NA,NA,NA,NA,NA,NA,NA,NA,NA,NA,NA,NA,NA,NA,NA,NA,NA,NA,NA,NA,NA,NA,NA,NA,NA,NA,NA,NA,NA,NA,NA,NA,NA,NA,NA,NA,NA,NA,NA,NA,NA,NA,NA,NA,NA,NA,NA,NA,NA,NA,NA,NA,NA,NA,NA,NA,NA,NA,NA,NA,NA,NA,NA,NA,NA,NA,NA,NA,NA,NA,NA,NA,NA,NA,NA,NA,NA,NA,NA,NA,NA,NA,NA,NA,NA,NA,,,NA
html-keyboard-response,58,167481,0.0-4.0-0.19,7ynpv8c34psnjr1,0,Windows,Chrome,NA,+,NA,,,fixation,NA,NA,NA,NA,NA,NA,,NA,,,,,,,NA,,NA,,,,,,,,,,,NA,NA,NA,NA,NA,NA,NA,NA,NA,NA,NA,NA,NA,NA,NA,NA,NA,NA,NA,NA,NA,NA,NA,NA,NA,NA,NA,NA,NA,NA,NA,NA,NA,NA,NA,NA,NA,NA,NA,NA,NA,NA,NA,NA,NA,NA,NA,NA,NA,NA,NA,NA,NA,NA,NA,NA,NA,NA,NA,NA,NA,NA,NA,NA,NA,NA,NA,NA,NA,NA,NA,NA,NA,NA,NA,NA,NA,NA,NA,NA,NA,NA,NA,NA,NA,NA,NA,NA,NA,NA,NA,NA,,,NA
image-keyboard-response,59,168191,0.0-4.0-1.19,7ynpv8c34psnjr1,0,Windows,Chrome,709.35499999905,_faces/AM04_F_L.jpg,NA,,,emotionRatingFaceWindow,NA,NA,NA,80,1,0,sad,19,AM04_F_L,AM04,A,M,F,L,1,,NA,,,,,,,,,,,NA,NA,NA,NA,NA,NA,NA,NA,NA,NA,NA,NA,NA,NA,NA,NA,NA,NA,NA,NA,NA,NA,NA,NA,NA,NA,NA,NA,NA,NA,NA,NA,NA,NA,NA,NA,NA,NA,NA,NA,NA,NA,NA,NA,NA,NA,NA,NA,NA,NA,NA,NA,NA,NA,NA,NA,NA,NA,NA,NA,NA,NA,NA,NA,NA,NA,NA,NA,NA,NA,NA,NA,NA,NA,NA,NA,NA,NA,NA,NA,NA,NA,NA,NA,NA,NA,NA,NA,NA,NA,NA,NA,,,NA
html-keyboard-response,60,169192,0.0-4.0-0.20,7ynpv8c34psnjr1,0,Windows,Chrome,NA,+,NA,,,fixation,NA,NA,NA,NA,NA,NA,,NA,,,,,,,NA,,NA,,,,,,,,,,,NA,NA,NA,NA,NA,NA,NA,NA,NA,NA,NA,NA,NA,NA,NA,NA,NA,NA,NA,NA,NA,NA,NA,NA,NA,NA,NA,NA,NA,NA,NA,NA,NA,NA,NA,NA,NA,NA,NA,NA,NA,NA,NA,NA,NA,NA,NA,NA,NA,NA,NA,NA,NA,NA,NA,NA,NA,NA,NA,NA,NA,NA,NA,NA,NA,NA,NA,NA,NA,NA,NA,NA,NA,NA,NA,NA,NA,NA,NA,NA,NA,NA,NA,NA,NA,NA,NA,NA,NA,NA,NA,NA,,,NA
image-keyboard-response,61,170062,0.0-4.0-1.20,7ynpv8c34psnjr1,0,Windows,Chrome,869.8599999770522,_faces/WM13_S_U.jpg,NA,,,emotionRatingFaceWindow,NA,NA,NA,81,1,0,sad,20,WM13_S_U,WM13,W,M,S,U,0,,NA,,,,,,,,,,,NA,NA,NA,NA,NA,NA,NA,NA,NA,NA,NA,NA,NA,NA,NA,NA,NA,NA,NA,NA,NA,NA,NA,NA,NA,NA,NA,NA,NA,NA,NA,NA,NA,NA,NA,NA,NA,NA,NA,NA,NA,NA,NA,NA,NA,NA,NA,NA,NA,NA,NA,NA,NA,NA,NA,NA,NA,NA,NA,NA,NA,NA,NA,NA,NA,NA,NA,NA,NA,NA,NA,NA,NA,NA,NA,NA,NA,NA,NA,NA,NA,NA,NA,NA,NA,NA,NA,NA,NA,NA,NA,NA,,,NA
html-keyboard-response,62,171063,0.0-4.0-0.21,7ynpv8c34psnjr1,0,Windows,Chrome,NA,+,NA,,,fixation,NA,NA,NA,NA,NA,NA,,NA,,,,,,,NA,,NA,,,,,,,,,,,NA,NA,NA,NA,NA,NA,NA,NA,NA,NA,NA,NA,NA,NA,NA,NA,NA,NA,NA,NA,NA,NA,NA,NA,NA,NA,NA,NA,NA,NA,NA,NA,NA,NA,NA,NA,NA,NA,NA,NA,NA,NA,NA,NA,NA,NA,NA,NA,NA,NA,NA,NA,NA,NA,NA,NA,NA,NA,NA,NA,NA,NA,NA,NA,NA,NA,NA,NA,NA,NA,NA,NA,NA,NA,NA,NA,NA,NA,NA,NA,NA,NA,NA,NA,NA,NA,NA,NA,NA,NA,NA,NA,,,NA
image-keyboard-response,63,171798,0.0-4.0-1.21,7ynpv8c34psnjr1,0,Windows,Chrome,734.7249999875203,_faces/AM04_F_U.jpg,NA,,,emotionRatingFaceWindow,NA,NA,NA,81,1,0,sad,21,AM04_F_U,AM04,A,M,F,U,0,,NA,,,,,,,,,,,NA,NA,NA,NA,NA,NA,NA,NA,NA,NA,NA,NA,NA,NA,NA,NA,NA,NA,NA,NA,NA,NA,NA,NA,NA,NA,NA,NA,NA,NA,NA,NA,NA,NA,NA,NA,NA,NA,NA,NA,NA,NA,NA,NA,NA,NA,NA,NA,NA,NA,NA,NA,NA,NA,NA,NA,NA,NA,NA,NA,NA,NA,NA,NA,NA,NA,NA,NA,NA,NA,NA,NA,NA,NA,NA,NA,NA,NA,NA,NA,NA,NA,NA,NA,NA,NA,NA,NA,NA,NA,NA,NA,,,NA
html-keyboard-response,64,172799,0.0-4.0-0.22,7ynpv8c34psnjr1,0,Windows,Chrome,NA,+,NA,,,fixation,NA,NA,NA,NA,NA,NA,,NA,,,,,,,NA,,NA,,,,,,,,,,,NA,NA,NA,NA,NA,NA,NA,NA,NA,NA,NA,NA,NA,NA,NA,NA,NA,NA,NA,NA,NA,NA,NA,NA,NA,NA,NA,NA,NA,NA,NA,NA,NA,NA,NA,NA,NA,NA,NA,NA,NA,NA,NA,NA,NA,NA,NA,NA,NA,NA,NA,NA,NA,NA,NA,NA,NA,NA,NA,NA,NA,NA,NA,NA,NA,NA,NA,NA,NA,NA,NA,NA,NA,NA,NA,NA,NA,NA,NA,NA,NA,NA,NA,NA,NA,NA,NA,NA,NA,NA,NA,NA,,,NA
image-keyboard-response,65,173798,0.0-4.0-1.22,7ynpv8c34psnjr1,0,Windows,Chrome,998.4849999891594,_faces/BF10_S_U.jpg,NA,,,emotionRatingFaceWindow,NA,NA,NA,80,1,0,sad,22,BF10_S_U,BF10,B,F,S,U,1,,NA,,,,,,,,,,,NA,NA,NA,NA,NA,NA,NA,NA,NA,NA,NA,NA,NA,NA,NA,NA,NA,NA,NA,NA,NA,NA,NA,NA,NA,NA,NA,NA,NA,NA,NA,NA,NA,NA,NA,NA,NA,NA,NA,NA,NA,NA,NA,NA,NA,NA,NA,NA,NA,NA,NA,NA,NA,NA,NA,NA,NA,NA,NA,NA,NA,NA,NA,NA,NA,NA,NA,NA,NA,NA,NA,NA,NA,NA,NA,NA,NA,NA,NA,NA,NA,NA,NA,NA,NA,NA,NA,NA,NA,NA,NA,NA,,,NA
html-keyboard-response,66,174800,0.0-4.0-0.23,7ynpv8c34psnjr1,0,Windows,Chrome,NA,+,NA,,,fixation,NA,NA,NA,NA,NA,NA,,NA,,,,,,,NA,,NA,,,,,,,,,,,NA,NA,NA,NA,NA,NA,NA,NA,NA,NA,NA,NA,NA,NA,NA,NA,NA,NA,NA,NA,NA,NA,NA,NA,NA,NA,NA,NA,NA,NA,NA,NA,NA,NA,NA,NA,NA,NA,NA,NA,NA,NA,NA,NA,NA,NA,NA,NA,NA,NA,NA,NA,NA,NA,NA,NA,NA,NA,NA,NA,NA,NA,NA,NA,NA,NA,NA,NA,NA,NA,NA,NA,NA,NA,NA,NA,NA,NA,NA,NA,NA,NA,NA,NA,NA,NA,NA,NA,NA,NA,NA,NA,,,NA
image-keyboard-response,67,175591,0.0-4.0-1.23,7ynpv8c34psnjr1,0,Windows,Chrome,790.389999980107,_faces/AF09_D_X.jpg,NA,,,emotionRatingFaceWindow,NA,NA,NA,81,1,0,sad,23,AF09_D_X,AF09,A,F,D,X,0,,NA,,,,,,,,,,,NA,NA,NA,NA,NA,NA,NA,NA,NA,NA,NA,NA,NA,NA,NA,NA,NA,NA,NA,NA,NA,NA,NA,NA,NA,NA,NA,NA,NA,NA,NA,NA,NA,NA,NA,NA,NA,NA,NA,NA,NA,NA,NA,NA,NA,NA,NA,NA,NA,NA,NA,NA,NA,NA,NA,NA,NA,NA,NA,NA,NA,NA,NA,NA,NA,NA,NA,NA,NA,NA,NA,NA,NA,NA,NA,NA,NA,NA,NA,NA,NA,NA,NA,NA,NA,NA,NA,NA,NA,NA,NA,NA,,,NA
html-keyboard-response,68,176592,0.0-4.0-0.24,7ynpv8c34psnjr1,0,Windows,Chrome,NA,+,NA,,,fixation,NA,NA,NA,NA,NA,NA,,NA,,,,,,,NA,,NA,,,,,,,,,,,NA,NA,NA,NA,NA,NA,NA,NA,NA,NA,NA,NA,NA,NA,NA,NA,NA,NA,NA,NA,NA,NA,NA,NA,NA,NA,NA,NA,NA,NA,NA,NA,NA,NA,NA,NA,NA,NA,NA,NA,NA,NA,NA,NA,NA,NA,NA,NA,NA,NA,NA,NA,NA,NA,NA,NA,NA,NA,NA,NA,NA,NA,NA,NA,NA,NA,NA,NA,NA,NA,NA,NA,NA,NA,NA,NA,NA,NA,NA,NA,NA,NA,NA,NA,NA,NA,NA,NA,NA,NA,NA,NA,,,NA
image-keyboard-response,69,177430,0.0-4.0-1.24,7ynpv8c34psnjr1,0,Windows,Chrome,836.3850000314415,_faces/AM07_H_X.jpg,NA,,,emotionRatingFaceWindow,NA,NA,NA,81,1,0,sad,24,AM07_H_X,AM07,A,M,H,X,0,,NA,,,,,,,,,,,NA,NA,NA,NA,NA,NA,NA,NA,NA,NA,NA,NA,NA,NA,NA,NA,NA,NA,NA,NA,NA,NA,NA,NA,NA,NA,NA,NA,NA,NA,NA,NA,NA,NA,NA,NA,NA,NA,NA,NA,NA,NA,NA,NA,NA,NA,NA,NA,NA,NA,NA,NA,NA,NA,NA,NA,NA,NA,NA,NA,NA,NA,NA,NA,NA,NA,NA,NA,NA,NA,NA,NA,NA,NA,NA,NA,NA,NA,NA,NA,NA,NA,NA,NA,NA,NA,NA,NA,NA,NA,NA,NA,,,NA
html-keyboard-response,70,178431,0.0-4.0-0.25,7ynpv8c34psnjr1,0,Windows,Chrome,NA,+,NA,,,fixation,NA,NA,NA,NA,NA,NA,,NA,,,,,,,NA,,NA,,,,,,,,,,,NA,NA,NA,NA,NA,NA,NA,NA,NA,NA,NA,NA,NA,NA,NA,NA,NA,NA,NA,NA,NA,NA,NA,NA,NA,NA,NA,NA,NA,NA,NA,NA,NA,NA,NA,NA,NA,NA,NA,NA,NA,NA,NA,NA,NA,NA,NA,NA,NA,NA,NA,NA,NA,NA,NA,NA,NA,NA,NA,NA,NA,NA,NA,NA,NA,NA,NA,NA,NA,NA,NA,NA,NA,NA,NA,NA,NA,NA,NA,NA,NA,NA,NA,NA,NA,NA,NA,NA,NA,NA,NA,NA,,,NA
image-keyboard-response,71,179398,0.0-4.0-1.25,7ynpv8c34psnjr1,0,Windows,Chrome,966.4999999804422,_faces/BF10_S_L.jpg,NA,,,emotionRatingFaceWindow,NA,NA,NA,80,1,0,sad,25,BF10_S_L,BF10,B,F,S,L,1,,NA,,,,,,,,,,,NA,NA,NA,NA,NA,NA,NA,NA,NA,NA,NA,NA,NA,NA,NA,NA,NA,NA,NA,NA,NA,NA,NA,NA,NA,NA,NA,NA,NA,NA,NA,NA,NA,NA,NA,NA,NA,NA,NA,NA,NA,NA,NA,NA,NA,NA,NA,NA,NA,NA,NA,NA,NA,NA,NA,NA,NA,NA,NA,NA,NA,NA,NA,NA,NA,NA,NA,NA,NA,NA,NA,NA,NA,NA,NA,NA,NA,NA,NA,NA,NA,NA,NA,NA,NA,NA,NA,NA,NA,NA,NA,NA,,,NA
html-keyboard-response,72,180399,0.0-4.0-0.26,7ynpv8c34psnjr1,0,Windows,Chrome,NA,+,NA,,,fixation,NA,NA,NA,NA,NA,NA,,NA,,,,,,,NA,,NA,,,,,,,,,,,NA,NA,NA,NA,NA,NA,NA,NA,NA,NA,NA,NA,NA,NA,NA,NA,NA,NA,NA,NA,NA,NA,NA,NA,NA,NA,NA,NA,NA,NA,NA,NA,NA,NA,NA,NA,NA,NA,NA,NA,NA,NA,NA,NA,NA,NA,NA,NA,NA,NA,NA,NA,NA,NA,NA,NA,NA,NA,NA,NA,NA,NA,NA,NA,NA,NA,NA,NA,NA,NA,NA,NA,NA,NA,NA,NA,NA,NA,NA,NA,NA,NA,NA,NA,NA,NA,NA,NA,NA,NA,NA,NA,,,NA
image-keyboard-response,73,181118,0.0-4.0-1.26,7ynpv8c34psnjr1,0,Windows,Chrome,718.6750000109896,_faces/BM17_F_U.jpg,NA,,,emotionRatingFaceWindow,NA,NA,NA,81,1,0,sad,26,BM17_F_U,BM17,B,M,F,U,0,,NA,,,,,,,,,,,NA,NA,NA,NA,NA,NA,NA,NA,NA,NA,NA,NA,NA,NA,NA,NA,NA,NA,NA,NA,NA,NA,NA,NA,NA,NA,NA,NA,NA,NA,NA,NA,NA,NA,NA,NA,NA,NA,NA,NA,NA,NA,NA,NA,NA,NA,NA,NA,NA,NA,NA,NA,NA,NA,NA,NA,NA,NA,NA,NA,NA,NA,NA,NA,NA,NA,NA,NA,NA,NA,NA,NA,NA,NA,NA,NA,NA,NA,NA,NA,NA,NA,NA,NA,NA,NA,NA,NA,NA,NA,NA,NA,,,NA
html-keyboard-response,74,182120,0.0-4.0-0.27,7ynpv8c34psnjr1,0,Windows,Chrome,NA,+,NA,,,fixation,NA,NA,NA,NA,NA,NA,,NA,,,,,,,NA,,NA,,,,,,,,,,,NA,NA,NA,NA,NA,NA,NA,NA,NA,NA,NA,NA,NA,NA,NA,NA,NA,NA,NA,NA,NA,NA,NA,NA,NA,NA,NA,NA,NA,NA,NA,NA,NA,NA,NA,NA,NA,NA,NA,NA,NA,NA,NA,NA,NA,NA,NA,NA,NA,NA,NA,NA,NA,NA,NA,NA,NA,NA,NA,NA,NA,NA,NA,NA,NA,NA,NA,NA,NA,NA,NA,NA,NA,NA,NA,NA,NA,NA,NA,NA,NA,NA,NA,NA,NA,NA,NA,NA,NA,NA,NA,NA,,,NA
image-keyboard-response,75,182862,0.0-4.0-1.27,7ynpv8c34psnjr1,0,Windows,Chrome,741.8649999890476,_faces/HF05_R_U.jpg,NA,,,emotionRatingFaceWindow,NA,NA,NA,81,1,0,sad,27,HF05_R_U,HF05,H,F,R,U,0,,NA,,,,,,,,,,,NA,NA,NA,NA,NA,NA,NA,NA,NA,NA,NA,NA,NA,NA,NA,NA,NA,NA,NA,NA,NA,NA,NA,NA,NA,NA,NA,NA,NA,NA,NA,NA,NA,NA,NA,NA,NA,NA,NA,NA,NA,NA,NA,NA,NA,NA,NA,NA,NA,NA,NA,NA,NA,NA,NA,NA,NA,NA,NA,NA,NA,NA,NA,NA,NA,NA,NA,NA,NA,NA,NA,NA,NA,NA,NA,NA,NA,NA,NA,NA,NA,NA,NA,NA,NA,NA,NA,NA,NA,NA,NA,NA,,,NA
html-keyboard-response,76,183864,0.0-4.0-0.28,7ynpv8c34psnjr1,0,Windows,Chrome,NA,+,NA,,,fixation,NA,NA,NA,NA,NA,NA,,NA,,,,,,,NA,,NA,,,,,,,,,,,NA,NA,NA,NA,NA,NA,NA,NA,NA,NA,NA,NA,NA,NA,NA,NA,NA,NA,NA,NA,NA,NA,NA,NA,NA,NA,NA,NA,NA,NA,NA,NA,NA,NA,NA,NA,NA,NA,NA,NA,NA,NA,NA,NA,NA,NA,NA,NA,NA,NA,NA,NA,NA,NA,NA,NA,NA,NA,NA,NA,NA,NA,NA,NA,NA,NA,NA,NA,NA,NA,NA,NA,NA,NA,NA,NA,NA,NA,NA,NA,NA,NA,NA,NA,NA,NA,NA,NA,NA,NA,NA,NA,,,NA
image-keyboard-response,77,184487,0.0-4.0-1.28,7ynpv8c34psnjr1,0,Windows,Chrome,622.0899999607354,_faces/WF05_H_U.jpg,NA,,,emotionRatingFaceWindow,NA,NA,NA,81,1,0,sad,28,WF05_H_U,WF05,W,F,H,U,0,,NA,,,,,,,,,,,NA,NA,NA,NA,NA,NA,NA,NA,NA,NA,NA,NA,NA,NA,NA,NA,NA,NA,NA,NA,NA,NA,NA,NA,NA,NA,NA,NA,NA,NA,NA,NA,NA,NA,NA,NA,NA,NA,NA,NA,NA,NA,NA,NA,NA,NA,NA,NA,NA,NA,NA,NA,NA,NA,NA,NA,NA,NA,NA,NA,NA,NA,NA,NA,NA,NA,NA,NA,NA,NA,NA,NA,NA,NA,NA,NA,NA,NA,NA,NA,NA,NA,NA,NA,NA,NA,NA,NA,NA,NA,NA,NA,,,NA
html-keyboard-response,78,185489,0.0-4.0-0.29,7ynpv8c34psnjr1,0,Windows,Chrome,NA,+,NA,,,fixation,NA,NA,NA,NA,NA,NA,,NA,,,,,,,NA,,NA,,,,,,,,,,,NA,NA,NA,NA,NA,NA,NA,NA,NA,NA,NA,NA,NA,NA,NA,NA,NA,NA,NA,NA,NA,NA,NA,NA,NA,NA,NA,NA,NA,NA,NA,NA,NA,NA,NA,NA,NA,NA,NA,NA,NA,NA,NA,NA,NA,NA,NA,NA,NA,NA,NA,NA,NA,NA,NA,NA,NA,NA,NA,NA,NA,NA,NA,NA,NA,NA,NA,NA,NA,NA,NA,NA,NA,NA,NA,NA,NA,NA,NA,NA,NA,NA,NA,NA,NA,NA,NA,NA,NA,NA,NA,NA,,,NA
image-keyboard-response,79,186199,0.0-4.0-1.29,7ynpv8c34psnjr1,0,Windows,Chrome,709.2699999921024,_faces/WM09_R_L.jpg,NA,,,emotionRatingFaceWindow,NA,NA,NA,80,1,0,sad,29,WM09_R_L,WM09,W,M,R,L,1,,NA,,,,,,,,,,,NA,NA,NA,NA,NA,NA,NA,NA,NA,NA,NA,NA,NA,NA,NA,NA,NA,NA,NA,NA,NA,NA,NA,NA,NA,NA,NA,NA,NA,NA,NA,NA,NA,NA,NA,NA,NA,NA,NA,NA,NA,NA,NA,NA,NA,NA,NA,NA,NA,NA,NA,NA,NA,NA,NA,NA,NA,NA,NA,NA,NA,NA,NA,NA,NA,NA,NA,NA,NA,NA,NA,NA,NA,NA,NA,NA,NA,NA,NA,NA,NA,NA,NA,NA,NA,NA,NA,NA,NA,NA,NA,NA,,,NA
html-keyboard-response,80,187200,0.0-4.0-0.30,7ynpv8c34psnjr1,0,Windows,Chrome,NA,+,NA,,,fixation,NA,NA,NA,NA,NA,NA,,NA,,,,,,,NA,,NA,,,,,,,,,,,NA,NA,NA,NA,NA,NA,NA,NA,NA,NA,NA,NA,NA,NA,NA,NA,NA,NA,NA,NA,NA,NA,NA,NA,NA,NA,NA,NA,NA,NA,NA,NA,NA,NA,NA,NA,NA,NA,NA,NA,NA,NA,NA,NA,NA,NA,NA,NA,NA,NA,NA,NA,NA,NA,NA,NA,NA,NA,NA,NA,NA,NA,NA,NA,NA,NA,NA,NA,NA,NA,NA,NA,NA,NA,NA,NA,NA,NA,NA,NA,NA,NA,NA,NA,NA,NA,NA,NA,NA,NA,NA,NA,,,NA
image-keyboard-response,81,187895,0.0-4.0-1.30,7ynpv8c34psnjr1,0,Windows,Chrome,694.5100000011735,_faces/HF04_H_U.jpg,NA,,,emotionRatingFaceWindow,NA,NA,NA,81,1,0,sad,30,HF04_H_U,HF04,H,F,H,U,0,,NA,,,,,,,,,,,NA,NA,NA,NA,NA,NA,NA,NA,NA,NA,NA,NA,NA,NA,NA,NA,NA,NA,NA,NA,NA,NA,NA,NA,NA,NA,NA,NA,NA,NA,NA,NA,NA,NA,NA,NA,NA,NA,NA,NA,NA,NA,NA,NA,NA,NA,NA,NA,NA,NA,NA,NA,NA,NA,NA,NA,NA,NA,NA,NA,NA,NA,NA,NA,NA,NA,NA,NA,NA,NA,NA,NA,NA,NA,NA,NA,NA,NA,NA,NA,NA,NA,NA,NA,NA,NA,NA,NA,NA,NA,NA,NA,,,NA
html-keyboard-response,82,188896,0.0-4.0-0.31,7ynpv8c34psnjr1,0,Windows,Chrome,NA,+,NA,,,fixation,NA,NA,NA,NA,NA,NA,,NA,,,,,,,NA,,NA,,,,,,,,,,,NA,NA,NA,NA,NA,NA,NA,NA,NA,NA,NA,NA,NA,NA,NA,NA,NA,NA,NA,NA,NA,NA,NA,NA,NA,NA,NA,NA,NA,NA,NA,NA,NA,NA,NA,NA,NA,NA,NA,NA,NA,NA,NA,NA,NA,NA,NA,NA,NA,NA,NA,NA,NA,NA,NA,NA,NA,NA,NA,NA,NA,NA,NA,NA,NA,NA,NA,NA,NA,NA,NA,NA,NA,NA,NA,NA,NA,NA,NA,NA,NA,NA,NA,NA,NA,NA,NA,NA,NA,NA,NA,NA,,,NA
image-keyboard-response,83,189654,0.0-4.0-1.31,7ynpv8c34psnjr1,0,Windows,Chrome,757.6499999850057,_faces/AF06_A_X.jpg,NA,,,emotionRatingFaceWindow,NA,NA,NA,81,1,0,sad,31,AF06_A_X,AF06,A,F,A,X,0,,NA,,,,,,,,,,,NA,NA,NA,NA,NA,NA,NA,NA,NA,NA,NA,NA,NA,NA,NA,NA,NA,NA,NA,NA,NA,NA,NA,NA,NA,NA,NA,NA,NA,NA,NA,NA,NA,NA,NA,NA,NA,NA,NA,NA,NA,NA,NA,NA,NA,NA,NA,NA,NA,NA,NA,NA,NA,NA,NA,NA,NA,NA,NA,NA,NA,NA,NA,NA,NA,NA,NA,NA,NA,NA,NA,NA,NA,NA,NA,NA,NA,NA,NA,NA,NA,NA,NA,NA,NA,NA,NA,NA,NA,NA,NA,NA,,,NA
html-keyboard-response,84,190656,0.0-4.0-0.32,7ynpv8c34psnjr1,0,Windows,Chrome,NA,+,NA,,,fixation,NA,NA,NA,NA,NA,NA,,NA,,,,,,,NA,,NA,,,,,,,,,,,NA,NA,NA,NA,NA,NA,NA,NA,NA,NA,NA,NA,NA,NA,NA,NA,NA,NA,NA,NA,NA,NA,NA,NA,NA,NA,NA,NA,NA,NA,NA,NA,NA,NA,NA,NA,NA,NA,NA,NA,NA,NA,NA,NA,NA,NA,NA,NA,NA,NA,NA,NA,NA,NA,NA,NA,NA,NA,NA,NA,NA,NA,NA,NA,NA,NA,NA,NA,NA,NA,NA,NA,NA,NA,NA,NA,NA,NA,NA,NA,NA,NA,NA,NA,NA,NA,NA,NA,NA,NA,NA,NA,,,NA
image-keyboard-response,85,191342,0.0-4.0-1.32,7ynpv8c34psnjr1,0,Windows,Chrome,685.4199999943376,_faces/WF02_F_L.jpg,NA,,,emotionRatingFaceWindow,NA,NA,NA,80,1,0,sad,32,WF02_F_L,WF02,W,F,F,L,1,,NA,,,,,,,,,,,NA,NA,NA,NA,NA,NA,NA,NA,NA,NA,NA,NA,NA,NA,NA,NA,NA,NA,NA,NA,NA,NA,NA,NA,NA,NA,NA,NA,NA,NA,NA,NA,NA,NA,NA,NA,NA,NA,NA,NA,NA,NA,NA,NA,NA,NA,NA,NA,NA,NA,NA,NA,NA,NA,NA,NA,NA,NA,NA,NA,NA,NA,NA,NA,NA,NA,NA,NA,NA,NA,NA,NA,NA,NA,NA,NA,NA,NA,NA,NA,NA,NA,NA,NA,NA,NA,NA,NA,NA,NA,NA,NA,,,NA
html-keyboard-response,86,192344,0.0-4.0-0.33,7ynpv8c34psnjr1,0,Windows,Chrome,NA,+,NA,,,fixation,NA,NA,NA,NA,NA,NA,,NA,,,,,,,NA,,NA,,,,,,,,,,,NA,NA,NA,NA,NA,NA,NA,NA,NA,NA,NA,NA,NA,NA,NA,NA,NA,NA,NA,NA,NA,NA,NA,NA,NA,NA,NA,NA,NA,NA,NA,NA,NA,NA,NA,NA,NA,NA,NA,NA,NA,NA,NA,NA,NA,NA,NA,NA,NA,NA,NA,NA,NA,NA,NA,NA,NA,NA,NA,NA,NA,NA,NA,NA,NA,NA,NA,NA,NA,NA,NA,NA,NA,NA,NA,NA,NA,NA,NA,NA,NA,NA,NA,NA,NA,NA,NA,NA,NA,NA,NA,NA,,,NA
image-keyboard-response,87,193502,0.0-4.0-1.33,7ynpv8c34psnjr1,0,Windows,Chrome,1157.4449999607168,_faces/AM11_R_X.jpg,NA,,,emotionRatingFaceWindow,NA,NA,NA,80,1,0,sad,33,AM11_R_X,AM11,A,M,R,X,1,,NA,,,,,,,,,,,NA,NA,NA,NA,NA,NA,NA,NA,NA,NA,NA,NA,NA,NA,NA,NA,NA,NA,NA,NA,NA,NA,NA,NA,NA,NA,NA,NA,NA,NA,NA,NA,NA,NA,NA,NA,NA,NA,NA,NA,NA,NA,NA,NA,NA,NA,NA,NA,NA,NA,NA,NA,NA,NA,NA,NA,NA,NA,NA,NA,NA,NA,NA,NA,NA,NA,NA,NA,NA,NA,NA,NA,NA,NA,NA,NA,NA,NA,NA,NA,NA,NA,NA,NA,NA,NA,NA,NA,NA,NA,NA,NA,,,NA
html-keyboard-response,88,194502,0.0-4.0-0.34,7ynpv8c34psnjr1,0,Windows,Chrome,NA,+,NA,,,fixation,NA,NA,NA,NA,NA,NA,,NA,,,,,,,NA,,NA,,,,,,,,,,,NA,NA,NA,NA,NA,NA,NA,NA,NA,NA,NA,NA,NA,NA,NA,NA,NA,NA,NA,NA,NA,NA,NA,NA,NA,NA,NA,NA,NA,NA,NA,NA,NA,NA,NA,NA,NA,NA,NA,NA,NA,NA,NA,NA,NA,NA,NA,NA,NA,NA,NA,NA,NA,NA,NA,NA,NA,NA,NA,NA,NA,NA,NA,NA,NA,NA,NA,NA,NA,NA,NA,NA,NA,NA,NA,NA,NA,NA,NA,NA,NA,NA,NA,NA,NA,NA,NA,NA,NA,NA,NA,NA,,,NA
image-keyboard-response,89,195510,0.0-4.0-1.34,7ynpv8c34psnjr1,0,Windows,Chrome,1007.0000000414439,_faces/BM16_D_U.jpg,NA,,,emotionRatingFaceWindow,NA,NA,NA,81,1,0,sad,34,BM16_D_U,BM16,B,M,D,U,0,,NA,,,,,,,,,,,NA,NA,NA,NA,NA,NA,NA,NA,NA,NA,NA,NA,NA,NA,NA,NA,NA,NA,NA,NA,NA,NA,NA,NA,NA,NA,NA,NA,NA,NA,NA,NA,NA,NA,NA,NA,NA,NA,NA,NA,NA,NA,NA,NA,NA,NA,NA,NA,NA,NA,NA,NA,NA,NA,NA,NA,NA,NA,NA,NA,NA,NA,NA,NA,NA,NA,NA,NA,NA,NA,NA,NA,NA,NA,NA,NA,NA,NA,NA,NA,NA,NA,NA,NA,NA,NA,NA,NA,NA,NA,NA,NA,,,NA
html-keyboard-response,90,196511,0.0-4.0-0.35,7ynpv8c34psnjr1,0,Windows,Chrome,NA,+,NA,,,fixation,NA,NA,NA,NA,NA,NA,,NA,,,,,,,NA,,NA,,,,,,,,,,,NA,NA,NA,NA,NA,NA,NA,NA,NA,NA,NA,NA,NA,NA,NA,NA,NA,NA,NA,NA,NA,NA,NA,NA,NA,NA,NA,NA,NA,NA,NA,NA,NA,NA,NA,NA,NA,NA,NA,NA,NA,NA,NA,NA,NA,NA,NA,NA,NA,NA,NA,NA,NA,NA,NA,NA,NA,NA,NA,NA,NA,NA,NA,NA,NA,NA,NA,NA,NA,NA,NA,NA,NA,NA,NA,NA,NA,NA,NA,NA,NA,NA,NA,NA,NA,NA,NA,NA,NA,NA,NA,NA,,,NA
image-keyboard-response,91,197343,0.0-4.0-1.35,7ynpv8c34psnjr1,0,Windows,Chrome,830.675000033807,_faces/HM09_D_L.jpg,NA,,,emotionRatingFaceWindow,NA,NA,NA,80,1,0,sad,35,HM09_D_L,HM09,H,M,D,L,1,,NA,,,,,,,,,,,NA,NA,NA,NA,NA,NA,NA,NA,NA,NA,NA,NA,NA,NA,NA,NA,NA,NA,NA,NA,NA,NA,NA,NA,NA,NA,NA,NA,NA,NA,NA,NA,NA,NA,NA,NA,NA,NA,NA,NA,NA,NA,NA,NA,NA,NA,NA,NA,NA,NA,NA,NA,NA,NA,NA,NA,NA,NA,NA,NA,NA,NA,NA,NA,NA,NA,NA,NA,NA,NA,NA,NA,NA,NA,NA,NA,NA,NA,NA,NA,NA,NA,NA,NA,NA,NA,NA,NA,NA,NA,NA,NA,,,NA
html-keyboard-response,92,198344,0.0-4.0-0.36,7ynpv8c34psnjr1,0,Windows,Chrome,NA,+,NA,,,fixation,NA,NA,NA,NA,NA,NA,,NA,,,,,,,NA,,NA,,,,,,,,,,,NA,NA,NA,NA,NA,NA,NA,NA,NA,NA,NA,NA,NA,NA,NA,NA,NA,NA,NA,NA,NA,NA,NA,NA,NA,NA,NA,NA,NA,NA,NA,NA,NA,NA,NA,NA,NA,NA,NA,NA,NA,NA,NA,NA,NA,NA,NA,NA,NA,NA,NA,NA,NA,NA,NA,NA,NA,NA,NA,NA,NA,NA,NA,NA,NA,NA,NA,NA,NA,NA,NA,NA,NA,NA,NA,NA,NA,NA,NA,NA,NA,NA,NA,NA,NA,NA,NA,NA,NA,NA,NA,NA,,,NA
image-keyboard-response,93,198926,0.0-4.0-1.36,7ynpv8c34psnjr1,0,Windows,Chrome,581.4799999934621,_faces/HF05_R_X.jpg,NA,,,emotionRatingFaceWindow,NA,NA,NA,81,1,0,sad,36,HF05_R_X,HF05,H,F,R,X,0,,NA,,,,,,,,,,,NA,NA,NA,NA,NA,NA,NA,NA,NA,NA,NA,NA,NA,NA,NA,NA,NA,NA,NA,NA,NA,NA,NA,NA,NA,NA,NA,NA,NA,NA,NA,NA,NA,NA,NA,NA,NA,NA,NA,NA,NA,NA,NA,NA,NA,NA,NA,NA,NA,NA,NA,NA,NA,NA,NA,NA,NA,NA,NA,NA,NA,NA,NA,NA,NA,NA,NA,NA,NA,NA,NA,NA,NA,NA,NA,NA,NA,NA,NA,NA,NA,NA,NA,NA,NA,NA,NA,NA,NA,NA,NA,NA,,,NA
html-keyboard-response,94,199928,0.0-4.0-0.37,7ynpv8c34psnjr1,0,Windows,Chrome,NA,+,NA,,,fixation,NA,NA,NA,NA,NA,NA,,NA,,,,,,,NA,,NA,,,,,,,,,,,NA,NA,NA,NA,NA,NA,NA,NA,NA,NA,NA,NA,NA,NA,NA,NA,NA,NA,NA,NA,NA,NA,NA,NA,NA,NA,NA,NA,NA,NA,NA,NA,NA,NA,NA,NA,NA,NA,NA,NA,NA,NA,NA,NA,NA,NA,NA,NA,NA,NA,NA,NA,NA,NA,NA,NA,NA,NA,NA,NA,NA,NA,NA,NA,NA,NA,NA,NA,NA,NA,NA,NA,NA,NA,NA,NA,NA,NA,NA,NA,NA,NA,NA,NA,NA,NA,NA,NA,NA,NA,NA,NA,,,NA
image-keyboard-response,95,200902,0.0-4.0-1.37,7ynpv8c34psnjr1,0,Windows,Chrome,973.7549999845214,_faces/WF02_F_U.jpg,NA,,,emotionRatingFaceWindow,NA,NA,NA,80,1,0,sad,37,WF02_F_U,WF02,W,F,F,U,1,,NA,,,,,,,,,,,NA,NA,NA,NA,NA,NA,NA,NA,NA,NA,NA,NA,NA,NA,NA,NA,NA,NA,NA,NA,NA,NA,NA,NA,NA,NA,NA,NA,NA,NA,NA,NA,NA,NA,NA,NA,NA,NA,NA,NA,NA,NA,NA,NA,NA,NA,NA,NA,NA,NA,NA,NA,NA,NA,NA,NA,NA,NA,NA,NA,NA,NA,NA,NA,NA,NA,NA,NA,NA,NA,NA,NA,NA,NA,NA,NA,NA,NA,NA,NA,NA,NA,NA,NA,NA,NA,NA,NA,NA,NA,NA,NA,,,NA
html-keyboard-response,96,201903,0.0-4.0-0.38,7ynpv8c34psnjr1,0,Windows,Chrome,NA,+,NA,,,fixation,NA,NA,NA,NA,NA,NA,,NA,,,,,,,NA,,NA,,,,,,,,,,,NA,NA,NA,NA,NA,NA,NA,NA,NA,NA,NA,NA,NA,NA,NA,NA,NA,NA,NA,NA,NA,NA,NA,NA,NA,NA,NA,NA,NA,NA,NA,NA,NA,NA,NA,NA,NA,NA,NA,NA,NA,NA,NA,NA,NA,NA,NA,NA,NA,NA,NA,NA,NA,NA,NA,NA,NA,NA,NA,NA,NA,NA,NA,NA,NA,NA,NA,NA,NA,NA,NA,NA,NA,NA,NA,NA,NA,NA,NA,NA,NA,NA,NA,NA,NA,NA,NA,NA,NA,NA,NA,NA,,,NA
image-keyboard-response,97,202502,0.0-4.0-1.38,7ynpv8c34psnjr1,0,Windows,Chrome,598.1850000098348,_faces/BM17_F_X.jpg,NA,,,emotionRatingFaceWindow,NA,NA,NA,81,1,0,sad,38,BM17_F_X,BM17,B,M,F,X,0,,NA,,,,,,,,,,,NA,NA,NA,NA,NA,NA,NA,NA,NA,NA,NA,NA,NA,NA,NA,NA,NA,NA,NA,NA,NA,NA,NA,NA,NA,NA,NA,NA,NA,NA,NA,NA,NA,NA,NA,NA,NA,NA,NA,NA,NA,NA,NA,NA,NA,NA,NA,NA,NA,NA,NA,NA,NA,NA,NA,NA,NA,NA,NA,NA,NA,NA,NA,NA,NA,NA,NA,NA,NA,NA,NA,NA,NA,NA,NA,NA,NA,NA,NA,NA,NA,NA,NA,NA,NA,NA,NA,NA,NA,NA,NA,NA,,,NA
html-keyboard-response,98,203503,0.0-4.0-0.39,7ynpv8c34psnjr1,0,Windows,Chrome,NA,+,NA,,,fixation,NA,NA,NA,NA,NA,NA,,NA,,,,,,,NA,,NA,,,,,,,,,,,NA,NA,NA,NA,NA,NA,NA,NA,NA,NA,NA,NA,NA,NA,NA,NA,NA,NA,NA,NA,NA,NA,NA,NA,NA,NA,NA,NA,NA,NA,NA,NA,NA,NA,NA,NA,NA,NA,NA,NA,NA,NA,NA,NA,NA,NA,NA,NA,NA,NA,NA,NA,NA,NA,NA,NA,NA,NA,NA,NA,NA,NA,NA,NA,NA,NA,NA,NA,NA,NA,NA,NA,NA,NA,NA,NA,NA,NA,NA,NA,NA,NA,NA,NA,NA,NA,NA,NA,NA,NA,NA,NA,,,NA
image-keyboard-response,99,204302,0.0-4.0-1.39,7ynpv8c34psnjr1,0,Windows,Chrome,798.7649999558926,_faces/AM11_R_U.jpg,NA,,,emotionRatingFaceWindow,NA,NA,NA,81,1,0,sad,39,AM11_R_U,AM11,A,M,R,U,0,,NA,,,,,,,,,,,NA,NA,NA,NA,NA,NA,NA,NA,NA,NA,NA,NA,NA,NA,NA,NA,NA,NA,NA,NA,NA,NA,NA,NA,NA,NA,NA,NA,NA,NA,NA,NA,NA,NA,NA,NA,NA,NA,NA,NA,NA,NA,NA,NA,NA,NA,NA,NA,NA,NA,NA,NA,NA,NA,NA,NA,NA,NA,NA,NA,NA,NA,NA,NA,NA,NA,NA,NA,NA,NA,NA,NA,NA,NA,NA,NA,NA,NA,NA,NA,NA,NA,NA,NA,NA,NA,NA,NA,NA,NA,NA,NA,,,NA
html-keyboard-response,100,205304,0.0-4.0-0.40,7ynpv8c34psnjr1,0,Windows,Chrome,NA,+,NA,,,fixation,NA,NA,NA,NA,NA,NA,,NA,,,,,,,NA,,NA,,,,,,,,,,,NA,NA,NA,NA,NA,NA,NA,NA,NA,NA,NA,NA,NA,NA,NA,NA,NA,NA,NA,NA,NA,NA,NA,NA,NA,NA,NA,NA,NA,NA,NA,NA,NA,NA,NA,NA,NA,NA,NA,NA,NA,NA,NA,NA,NA,NA,NA,NA,NA,NA,NA,NA,NA,NA,NA,NA,NA,NA,NA,NA,NA,NA,NA,NA,NA,NA,NA,NA,NA,NA,NA,NA,NA,NA,NA,NA,NA,NA,NA,NA,NA,NA,NA,NA,NA,NA,NA,NA,NA,NA,NA,NA,,,NA
image-keyboard-response,101,206222,0.0-4.0-1.40,7ynpv8c34psnjr1,0,Windows,Chrome,917.5950000062585,_faces/HM08_A_L.jpg,NA,,,emotionRatingFaceWindow,NA,NA,NA,81,1,0,sad,40,HM08_A_L,HM08,H,M,A,L,0,,NA,,,,,,,,,,,NA,NA,NA,NA,NA,NA,NA,NA,NA,NA,NA,NA,NA,NA,NA,NA,NA,NA,NA,NA,NA,NA,NA,NA,NA,NA,NA,NA,NA,NA,NA,NA,NA,NA,NA,NA,NA,NA,NA,NA,NA,NA,NA,NA,NA,NA,NA,NA,NA,NA,NA,NA,NA,NA,NA,NA,NA,NA,NA,NA,NA,NA,NA,NA,NA,NA,NA,NA,NA,NA,NA,NA,NA,NA,NA,NA,NA,NA,NA,NA,NA,NA,NA,NA,NA,NA,NA,NA,NA,NA,NA,NA,,,NA
html-keyboard-response,102,207224,0.0-4.0-0.41,7ynpv8c34psnjr1,0,Windows,Chrome,NA,+,NA,,,fixation,NA,NA,NA,NA,NA,NA,,NA,,,,,,,NA,,NA,,,,,,,,,,,NA,NA,NA,NA,NA,NA,NA,NA,NA,NA,NA,NA,NA,NA,NA,NA,NA,NA,NA,NA,NA,NA,NA,NA,NA,NA,NA,NA,NA,NA,NA,NA,NA,NA,NA,NA,NA,NA,NA,NA,NA,NA,NA,NA,NA,NA,NA,NA,NA,NA,NA,NA,NA,NA,NA,NA,NA,NA,NA,NA,NA,NA,NA,NA,NA,NA,NA,NA,NA,NA,NA,NA,NA,NA,NA,NA,NA,NA,NA,NA,NA,NA,NA,NA,NA,NA,NA,NA,NA,NA,NA,NA,,,NA
image-keyboard-response,103,207855,0.0-4.0-1.41,7ynpv8c34psnjr1,0,Windows,Chrome,630.440000037197,_faces/AM07_H_U.jpg,NA,,,emotionRatingFaceWindow,NA,NA,NA,81,1,0,sad,41,AM07_H_U,AM07,A,M,H,U,0,,NA,,,,,,,,,,,NA,NA,NA,NA,NA,NA,NA,NA,NA,NA,NA,NA,NA,NA,NA,NA,NA,NA,NA,NA,NA,NA,NA,NA,NA,NA,NA,NA,NA,NA,NA,NA,NA,NA,NA,NA,NA,NA,NA,NA,NA,NA,NA,NA,NA,NA,NA,NA,NA,NA,NA,NA,NA,NA,NA,NA,NA,NA,NA,NA,NA,NA,NA,NA,NA,NA,NA,NA,NA,NA,NA,NA,NA,NA,NA,NA,NA,NA,NA,NA,NA,NA,NA,NA,NA,NA,NA,NA,NA,NA,NA,NA,,,NA
html-keyboard-response,104,208856,0.0-4.0-0.42,7ynpv8c34psnjr1,0,Windows,Chrome,NA,+,NA,,,fixation,NA,NA,NA,NA,NA,NA,,NA,,,,,,,NA,,NA,,,,,,,,,,,NA,NA,NA,NA,NA,NA,NA,NA,NA,NA,NA,NA,NA,NA,NA,NA,NA,NA,NA,NA,NA,NA,NA,NA,NA,NA,NA,NA,NA,NA,NA,NA,NA,NA,NA,NA,NA,NA,NA,NA,NA,NA,NA,NA,NA,NA,NA,NA,NA,NA,NA,NA,NA,NA,NA,NA,NA,NA,NA,NA,NA,NA,NA,NA,NA,NA,NA,NA,NA,NA,NA,NA,NA,NA,NA,NA,NA,NA,NA,NA,NA,NA,NA,NA,NA,NA,NA,NA,NA,NA,NA,NA,,,NA
image-keyboard-response,105,209527,0.0-4.0-1.42,7ynpv8c34psnjr1,0,Windows,Chrome,669.9599999701604,_faces/HF09_S_X.jpg,NA,,,emotionRatingFaceWindow,NA,NA,NA,80,1,0,sad,42,HF09_S_X,HF09,H,F,S,X,1,,NA,,,,,,,,,,,NA,NA,NA,NA,NA,NA,NA,NA,NA,NA,NA,NA,NA,NA,NA,NA,NA,NA,NA,NA,NA,NA,NA,NA,NA,NA,NA,NA,NA,NA,NA,NA,NA,NA,NA,NA,NA,NA,NA,NA,NA,NA,NA,NA,NA,NA,NA,NA,NA,NA,NA,NA,NA,NA,NA,NA,NA,NA,NA,NA,NA,NA,NA,NA,NA,NA,NA,NA,NA,NA,NA,NA,NA,NA,NA,NA,NA,NA,NA,NA,NA,NA,NA,NA,NA,NA,NA,NA,NA,NA,NA,NA,,,NA
html-keyboard-response,106,210528,0.0-4.0-0.43,7ynpv8c34psnjr1,0,Windows,Chrome,NA,+,NA,,,fixation,NA,NA,NA,NA,NA,NA,,NA,,,,,,,NA,,NA,,,,,,,,,,,NA,NA,NA,NA,NA,NA,NA,NA,NA,NA,NA,NA,NA,NA,NA,NA,NA,NA,NA,NA,NA,NA,NA,NA,NA,NA,NA,NA,NA,NA,NA,NA,NA,NA,NA,NA,NA,NA,NA,NA,NA,NA,NA,NA,NA,NA,NA,NA,NA,NA,NA,NA,NA,NA,NA,NA,NA,NA,NA,NA,NA,NA,NA,NA,NA,NA,NA,NA,NA,NA,NA,NA,NA,NA,NA,NA,NA,NA,NA,NA,NA,NA,NA,NA,NA,NA,NA,NA,NA,NA,NA,NA,,,NA
image-keyboard-response,107,211054,0.0-4.0-1.43,7ynpv8c34psnjr1,0,Windows,Chrome,525.4449999774806,_faces/HF04_H_X.jpg,NA,,,emotionRatingFaceWindow,NA,NA,NA,81,1,0,sad,43,HF04_H_X,HF04,H,F,H,X,0,,NA,,,,,,,,,,,NA,NA,NA,NA,NA,NA,NA,NA,NA,NA,NA,NA,NA,NA,NA,NA,NA,NA,NA,NA,NA,NA,NA,NA,NA,NA,NA,NA,NA,NA,NA,NA,NA,NA,NA,NA,NA,NA,NA,NA,NA,NA,NA,NA,NA,NA,NA,NA,NA,NA,NA,NA,NA,NA,NA,NA,NA,NA,NA,NA,NA,NA,NA,NA,NA,NA,NA,NA,NA,NA,NA,NA,NA,NA,NA,NA,NA,NA,NA,NA,NA,NA,NA,NA,NA,NA,NA,NA,NA,NA,NA,NA,,,NA
html-keyboard-response,108,212056,0.0-4.0-0.44,7ynpv8c34psnjr1,0,Windows,Chrome,NA,+,NA,,,fixation,NA,NA,NA,NA,NA,NA,,NA,,,,,,,NA,,NA,,,,,,,,,,,NA,NA,NA,NA,NA,NA,NA,NA,NA,NA,NA,NA,NA,NA,NA,NA,NA,NA,NA,NA,NA,NA,NA,NA,NA,NA,NA,NA,NA,NA,NA,NA,NA,NA,NA,NA,NA,NA,NA,NA,NA,NA,NA,NA,NA,NA,NA,NA,NA,NA,NA,NA,NA,NA,NA,NA,NA,NA,NA,NA,NA,NA,NA,NA,NA,NA,NA,NA,NA,NA,NA,NA,NA,NA,NA,NA,NA,NA,NA,NA,NA,NA,NA,NA,NA,NA,NA,NA,NA,NA,NA,NA,,,NA
image-keyboard-response,109,212726,0.0-4.0-1.44,7ynpv8c34psnjr1,0,Windows,Chrome,668.9449999830686,_faces/BM17_F_L.jpg,NA,,,emotionRatingFaceWindow,NA,NA,NA,81,1,0,sad,44,BM17_F_L,BM17,B,M,F,L,0,,NA,,,,,,,,,,,NA,NA,NA,NA,NA,NA,NA,NA,NA,NA,NA,NA,NA,NA,NA,NA,NA,NA,NA,NA,NA,NA,NA,NA,NA,NA,NA,NA,NA,NA,NA,NA,NA,NA,NA,NA,NA,NA,NA,NA,NA,NA,NA,NA,NA,NA,NA,NA,NA,NA,NA,NA,NA,NA,NA,NA,NA,NA,NA,NA,NA,NA,NA,NA,NA,NA,NA,NA,NA,NA,NA,NA,NA,NA,NA,NA,NA,NA,NA,NA,NA,NA,NA,NA,NA,NA,NA,NA,NA,NA,NA,NA,,,NA
html-keyboard-response,110,213727,0.0-4.0-0.45,7ynpv8c34psnjr1,0,Windows,Chrome,NA,+,NA,,,fixation,NA,NA,NA,NA,NA,NA,,NA,,,,,,,NA,,NA,,,,,,,,,,,NA,NA,NA,NA,NA,NA,NA,NA,NA,NA,NA,NA,NA,NA,NA,NA,NA,NA,NA,NA,NA,NA,NA,NA,NA,NA,NA,NA,NA,NA,NA,NA,NA,NA,NA,NA,NA,NA,NA,NA,NA,NA,NA,NA,NA,NA,NA,NA,NA,NA,NA,NA,NA,NA,NA,NA,NA,NA,NA,NA,NA,NA,NA,NA,NA,NA,NA,NA,NA,NA,NA,NA,NA,NA,NA,NA,NA,NA,NA,NA,NA,NA,NA,NA,NA,NA,NA,NA,NA,NA,NA,NA,,,NA
image-keyboard-response,111,214279,0.0-4.0-1.45,7ynpv8c34psnjr1,0,Windows,Chrome,550.4899999941699,_faces/AM04_F_X.jpg,NA,,,emotionRatingFaceWindow,NA,NA,NA,81,1,0,sad,45,AM04_F_X,AM04,A,M,F,X,0,,NA,,,,,,,,,,,NA,NA,NA,NA,NA,NA,NA,NA,NA,NA,NA,NA,NA,NA,NA,NA,NA,NA,NA,NA,NA,NA,NA,NA,NA,NA,NA,NA,NA,NA,NA,NA,NA,NA,NA,NA,NA,NA,NA,NA,NA,NA,NA,NA,NA,NA,NA,NA,NA,NA,NA,NA,NA,NA,NA,NA,NA,NA,NA,NA,NA,NA,NA,NA,NA,NA,NA,NA,NA,NA,NA,NA,NA,NA,NA,NA,NA,NA,NA,NA,NA,NA,NA,NA,NA,NA,NA,NA,NA,NA,NA,NA,,,NA
html-keyboard-response,112,215279,0.0-4.0-0.46,7ynpv8c34psnjr1,0,Windows,Chrome,NA,+,NA,,,fixation,NA,NA,NA,NA,NA,NA,,NA,,,,,,,NA,,NA,,,,,,,,,,,NA,NA,NA,NA,NA,NA,NA,NA,NA,NA,NA,NA,NA,NA,NA,NA,NA,NA,NA,NA,NA,NA,NA,NA,NA,NA,NA,NA,NA,NA,NA,NA,NA,NA,NA,NA,NA,NA,NA,NA,NA,NA,NA,NA,NA,NA,NA,NA,NA,NA,NA,NA,NA,NA,NA,NA,NA,NA,NA,NA,NA,NA,NA,NA,NA,NA,NA,NA,NA,NA,NA,NA,NA,NA,NA,NA,NA,NA,NA,NA,NA,NA,NA,NA,NA,NA,NA,NA,NA,NA,NA,NA,,,NA
image-keyboard-response,113,216070,0.0-4.0-1.46,7ynpv8c34psnjr1,0,Windows,Chrome,790.3350000269711,_faces/WF02_F_X.jpg,NA,,,emotionRatingFaceWindow,NA,NA,NA,81,1,0,sad,46,WF02_F_X,WF02,W,F,F,X,0,,NA,,,,,,,,,,,NA,NA,NA,NA,NA,NA,NA,NA,NA,NA,NA,NA,NA,NA,NA,NA,NA,NA,NA,NA,NA,NA,NA,NA,NA,NA,NA,NA,NA,NA,NA,NA,NA,NA,NA,NA,NA,NA,NA,NA,NA,NA,NA,NA,NA,NA,NA,NA,NA,NA,NA,NA,NA,NA,NA,NA,NA,NA,NA,NA,NA,NA,NA,NA,NA,NA,NA,NA,NA,NA,NA,NA,NA,NA,NA,NA,NA,NA,NA,NA,NA,NA,NA,NA,NA,NA,NA,NA,NA,NA,NA,NA,,,NA
html-keyboard-response,114,217072,0.0-4.0-0.47,7ynpv8c34psnjr1,0,Windows,Chrome,NA,+,NA,,,fixation,NA,NA,NA,NA,NA,NA,,NA,,,,,,,NA,,NA,,,,,,,,,,,NA,NA,NA,NA,NA,NA,NA,NA,NA,NA,NA,NA,NA,NA,NA,NA,NA,NA,NA,NA,NA,NA,NA,NA,NA,NA,NA,NA,NA,NA,NA,NA,NA,NA,NA,NA,NA,NA,NA,NA,NA,NA,NA,NA,NA,NA,NA,NA,NA,NA,NA,NA,NA,NA,NA,NA,NA,NA,NA,NA,NA,NA,NA,NA,NA,NA,NA,NA,NA,NA,NA,NA,NA,NA,NA,NA,NA,NA,NA,NA,NA,NA,NA,NA,NA,NA,NA,NA,NA,NA,NA,NA,,,NA
image-keyboard-response,115,217654,0.0-4.0-1.47,7ynpv8c34psnjr1,0,Windows,Chrome,581.9449999835342,_faces/WM09_R_X.jpg,NA,,,emotionRatingFaceWindow,NA,NA,NA,81,1,0,sad,47,WM09_R_X,WM09,W,M,R,X,0,,NA,,,,,,,,,,,NA,NA,NA,NA,NA,NA,NA,NA,NA,NA,NA,NA,NA,NA,NA,NA,NA,NA,NA,NA,NA,NA,NA,NA,NA,NA,NA,NA,NA,NA,NA,NA,NA,NA,NA,NA,NA,NA,NA,NA,NA,NA,NA,NA,NA,NA,NA,NA,NA,NA,NA,NA,NA,NA,NA,NA,NA,NA,NA,NA,NA,NA,NA,NA,NA,NA,NA,NA,NA,NA,NA,NA,NA,NA,NA,NA,NA,NA,NA,NA,NA,NA,NA,NA,NA,NA,NA,NA,NA,NA,NA,NA,,,NA
html-keyboard-response,116,218655,0.0-4.0-0.48,7ynpv8c34psnjr1,0,Windows,Chrome,NA,+,NA,,,fixation,NA,NA,NA,NA,NA,NA,,NA,,,,,,,NA,,NA,,,,,,,,,,,NA,NA,NA,NA,NA,NA,NA,NA,NA,NA,NA,NA,NA,NA,NA,NA,NA,NA,NA,NA,NA,NA,NA,NA,NA,NA,NA,NA,NA,NA,NA,NA,NA,NA,NA,NA,NA,NA,NA,NA,NA,NA,NA,NA,NA,NA,NA,NA,NA,NA,NA,NA,NA,NA,NA,NA,NA,NA,NA,NA,NA,NA,NA,NA,NA,NA,NA,NA,NA,NA,NA,NA,NA,NA,NA,NA,NA,NA,NA,NA,NA,NA,NA,NA,NA,NA,NA,NA,NA,NA,NA,NA,,,NA
image-keyboard-response,117,219359,0.0-4.0-1.48,7ynpv8c34psnjr1,0,Windows,Chrome,703.0099999974482,_faces/HF09_S_L.jpg,NA,,,emotionRatingFaceWindow,NA,NA,NA,80,1,0,sad,48,HF09_S_L,HF09,H,F,S,L,1,,NA,,,,,,,,,,,NA,NA,NA,NA,NA,NA,NA,NA,NA,NA,NA,NA,NA,NA,NA,NA,NA,NA,NA,NA,NA,NA,NA,NA,NA,NA,NA,NA,NA,NA,NA,NA,NA,NA,NA,NA,NA,NA,NA,NA,NA,NA,NA,NA,NA,NA,NA,NA,NA,NA,NA,NA,NA,NA,NA,NA,NA,NA,NA,NA,NA,NA,NA,NA,NA,NA,NA,NA,NA,NA,NA,NA,NA,NA,NA,NA,NA,NA,NA,NA,NA,NA,NA,NA,NA,NA,NA,NA,NA,NA,NA,NA,,,NA
html-keyboard-response,118,220361,0.0-4.0-0.49,7ynpv8c34psnjr1,0,Windows,Chrome,NA,+,NA,,,fixation,NA,NA,NA,NA,NA,NA,,NA,,,,,,,NA,,NA,,,,,,,,,,,NA,NA,NA,NA,NA,NA,NA,NA,NA,NA,NA,NA,NA,NA,NA,NA,NA,NA,NA,NA,NA,NA,NA,NA,NA,NA,NA,NA,NA,NA,NA,NA,NA,NA,NA,NA,NA,NA,NA,NA,NA,NA,NA,NA,NA,NA,NA,NA,NA,NA,NA,NA,NA,NA,NA,NA,NA,NA,NA,NA,NA,NA,NA,NA,NA,NA,NA,NA,NA,NA,NA,NA,NA,NA,NA,NA,NA,NA,NA,NA,NA,NA,NA,NA,NA,NA,NA,NA,NA,NA,NA,NA,,,NA
image-keyboard-response,119,221127,0.0-4.0-1.49,7ynpv8c34psnjr1,0,Windows,Chrome,765.2149999630637,_faces/HM09_D_X.jpg,NA,,,emotionRatingFaceWindow,NA,NA,NA,81,1,0,sad,49,HM09_D_X,HM09,H,M,D,X,0,,NA,,,,,,,,,,,NA,NA,NA,NA,NA,NA,NA,NA,NA,NA,NA,NA,NA,NA,NA,NA,NA,NA,NA,NA,NA,NA,NA,NA,NA,NA,NA,NA,NA,NA,NA,NA,NA,NA,NA,NA,NA,NA,NA,NA,NA,NA,NA,NA,NA,NA,NA,NA,NA,NA,NA,NA,NA,NA,NA,NA,NA,NA,NA,NA,NA,NA,NA,NA,NA,NA,NA,NA,NA,NA,NA,NA,NA,NA,NA,NA,NA,NA,NA,NA,NA,NA,NA,NA,NA,NA,NA,NA,NA,NA,NA,NA,,,NA
html-keyboard-response,120,222139,0.0-4.0-0.50,7ynpv8c34psnjr1,0,Windows,Chrome,NA,+,NA,,,fixation,NA,NA,NA,NA,NA,NA,,NA,,,,,,,NA,,NA,,,,,,,,,,,NA,NA,NA,NA,NA,NA,NA,NA,NA,NA,NA,NA,NA,NA,NA,NA,NA,NA,NA,NA,NA,NA,NA,NA,NA,NA,NA,NA,NA,NA,NA,NA,NA,NA,NA,NA,NA,NA,NA,NA,NA,NA,NA,NA,NA,NA,NA,NA,NA,NA,NA,NA,NA,NA,NA,NA,NA,NA,NA,NA,NA,NA,NA,NA,NA,NA,NA,NA,NA,NA,NA,NA,NA,NA,NA,NA,NA,NA,NA,NA,NA,NA,NA,NA,NA,NA,NA,NA,NA,NA,NA,NA,,,NA
image-keyboard-response,121,222815,0.0-4.0-1.50,7ynpv8c34psnjr1,0,Windows,Chrome,675.1800000201911,_faces/HF09_S_U.jpg,NA,,,emotionRatingFaceWindow,NA,NA,NA,80,1,0,sad,50,HF09_S_U,HF09,H,F,S,U,1,,NA,,,,,,,,,,,NA,NA,NA,NA,NA,NA,NA,NA,NA,NA,NA,NA,NA,NA,NA,NA,NA,NA,NA,NA,NA,NA,NA,NA,NA,NA,NA,NA,NA,NA,NA,NA,NA,NA,NA,NA,NA,NA,NA,NA,NA,NA,NA,NA,NA,NA,NA,NA,NA,NA,NA,NA,NA,NA,NA,NA,NA,NA,NA,NA,NA,NA,NA,NA,NA,NA,NA,NA,NA,NA,NA,NA,NA,NA,NA,NA,NA,NA,NA,NA,NA,NA,NA,NA,NA,NA,NA,NA,NA,NA,NA,NA,,,NA
html-keyboard-response,122,223816,0.0-4.0-0.51,7ynpv8c34psnjr1,0,Windows,Chrome,NA,+,NA,,,fixation,NA,NA,NA,NA,NA,NA,,NA,,,,,,,NA,,NA,,,,,,,,,,,NA,NA,NA,NA,NA,NA,NA,NA,NA,NA,NA,NA,NA,NA,NA,NA,NA,NA,NA,NA,NA,NA,NA,NA,NA,NA,NA,NA,NA,NA,NA,NA,NA,NA,NA,NA,NA,NA,NA,NA,NA,NA,NA,NA,NA,NA,NA,NA,NA,NA,NA,NA,NA,NA,NA,NA,NA,NA,NA,NA,NA,NA,NA,NA,NA,NA,NA,NA,NA,NA,NA,NA,NA,NA,NA,NA,NA,NA,NA,NA,NA,NA,NA,NA,NA,NA,NA,NA,NA,NA,NA,NA,,,NA
image-keyboard-response,123,224502,0.0-4.0-1.51,7ynpv8c34psnjr1,0,Windows,Chrome,685.3199999895878,_faces/AF06_A_U.jpg,NA,,,emotionRatingFaceWindow,NA,NA,NA,81,1,0,sad,51,AF06_A_U,AF06,A,F,A,U,0,,NA,,,,,,,,,,,NA,NA,NA,NA,NA,NA,NA,NA,NA,NA,NA,NA,NA,NA,NA,NA,NA,NA,NA,NA,NA,NA,NA,NA,NA,NA,NA,NA,NA,NA,NA,NA,NA,NA,NA,NA,NA,NA,NA,NA,NA,NA,NA,NA,NA,NA,NA,NA,NA,NA,NA,NA,NA,NA,NA,NA,NA,NA,NA,NA,NA,NA,NA,NA,NA,NA,NA,NA,NA,NA,NA,NA,NA,NA,NA,NA,NA,NA,NA,NA,NA,NA,NA,NA,NA,NA,NA,NA,NA,NA,NA,NA,,,NA
html-keyboard-response,124,225503,0.0-4.0-0.52,7ynpv8c34psnjr1,0,Windows,Chrome,NA,+,NA,,,fixation,NA,NA,NA,NA,NA,NA,,NA,,,,,,,NA,,NA,,,,,,,,,,,NA,NA,NA,NA,NA,NA,NA,NA,NA,NA,NA,NA,NA,NA,NA,NA,NA,NA,NA,NA,NA,NA,NA,NA,NA,NA,NA,NA,NA,NA,NA,NA,NA,NA,NA,NA,NA,NA,NA,NA,NA,NA,NA,NA,NA,NA,NA,NA,NA,NA,NA,NA,NA,NA,NA,NA,NA,NA,NA,NA,NA,NA,NA,NA,NA,NA,NA,NA,NA,NA,NA,NA,NA,NA,NA,NA,NA,NA,NA,NA,NA,NA,NA,NA,NA,NA,NA,NA,NA,NA,NA,NA,,,NA
image-keyboard-response,125,226142,0.0-4.0-1.52,7ynpv8c34psnjr1,0,Windows,Chrome,638.3400000049733,_faces/AF09_D_U.jpg,NA,,,emotionRatingFaceWindow,NA,NA,NA,81,1,0,sad,52,AF09_D_U,AF09,A,F,D,U,0,,NA,,,,,,,,,,,NA,NA,NA,NA,NA,NA,NA,NA,NA,NA,NA,NA,NA,NA,NA,NA,NA,NA,NA,NA,NA,NA,NA,NA,NA,NA,NA,NA,NA,NA,NA,NA,NA,NA,NA,NA,NA,NA,NA,NA,NA,NA,NA,NA,NA,NA,NA,NA,NA,NA,NA,NA,NA,NA,NA,NA,NA,NA,NA,NA,NA,NA,NA,NA,NA,NA,NA,NA,NA,NA,NA,NA,NA,NA,NA,NA,NA,NA,NA,NA,NA,NA,NA,NA,NA,NA,NA,NA,NA,NA,NA,NA,,,NA
html-keyboard-response,126,227143,0.0-4.0-0.53,7ynpv8c34psnjr1,0,Windows,Chrome,NA,+,NA,,,fixation,NA,NA,NA,NA,NA,NA,,NA,,,,,,,NA,,NA,,,,,,,,,,,NA,NA,NA,NA,NA,NA,NA,NA,NA,NA,NA,NA,NA,NA,NA,NA,NA,NA,NA,NA,NA,NA,NA,NA,NA,NA,NA,NA,NA,NA,NA,NA,NA,NA,NA,NA,NA,NA,NA,NA,NA,NA,NA,NA,NA,NA,NA,NA,NA,NA,NA,NA,NA,NA,NA,NA,NA,NA,NA,NA,NA,NA,NA,NA,NA,NA,NA,NA,NA,NA,NA,NA,NA,NA,NA,NA,NA,NA,NA,NA,NA,NA,NA,NA,NA,NA,NA,NA,NA,NA,NA,NA,,,NA
image-keyboard-response,127,227702,0.0-4.0-1.53,7ynpv8c34psnjr1,0,Windows,Chrome,558.0300000146963,_faces/HM09_D_U.jpg,NA,,,emotionRatingFaceWindow,NA,NA,NA,81,1,0,sad,53,HM09_D_U,HM09,H,M,D,U,0,,NA,,,,,,,,,,,NA,NA,NA,NA,NA,NA,NA,NA,NA,NA,NA,NA,NA,NA,NA,NA,NA,NA,NA,NA,NA,NA,NA,NA,NA,NA,NA,NA,NA,NA,NA,NA,NA,NA,NA,NA,NA,NA,NA,NA,NA,NA,NA,NA,NA,NA,NA,NA,NA,NA,NA,NA,NA,NA,NA,NA,NA,NA,NA,NA,NA,NA,NA,NA,NA,NA,NA,NA,NA,NA,NA,NA,NA,NA,NA,NA,NA,NA,NA,NA,NA,NA,NA,NA,NA,NA,NA,NA,NA,NA,NA,NA,,,NA
html-button-response,128,234527,0.0-5.0-0.0,7ynpv8c34psnjr1,0,Windows,Chrome,6824.350000009872,"<p>This round, you will rate whether each face looks <b>happy</b> or not.</p><p>If the face looks <b>happy</b>, press the letter <b>P</b>. If the face does <b>NOT</b> look happy, press the letter <b>Q</b>.</p><p>Please respond as quickly and accurately as possible when you see each face appear.</p><p>Click continue when you are ready to start this round.</p>",0,,,,NA,NA,NA,NA,NA,NA,,NA,,,,,,,NA,,NA,,,,,,,,,,,NA,NA,NA,NA,NA,NA,NA,NA,NA,NA,NA,NA,NA,NA,NA,NA,NA,NA,NA,NA,NA,NA,NA,NA,NA,NA,NA,NA,NA,NA,NA,NA,NA,NA,NA,NA,NA,NA,NA,NA,NA,NA,NA,NA,NA,NA,NA,NA,NA,NA,NA,NA,NA,NA,NA,NA,NA,NA,NA,NA,NA,NA,NA,NA,NA,NA,NA,NA,NA,NA,NA,NA,NA,NA,NA,NA,NA,NA,NA,NA,NA,NA,NA,NA,NA,NA,NA,NA,NA,NA,NA,NA,,,NA
survey-multi-choice,129,238096,0.0-5.0-1.0,7ynpv8c34psnjr1,0,Windows,Chrome,3067.169999994803,,NA,"{""CheckEmotionRating"":""happy""}",[0],instructionChecks,TRUE,NA,NA,NA,NA,NA,,NA,,,,,,,NA,,NA,,,,,,,,,,,NA,NA,NA,NA,NA,NA,NA,NA,NA,NA,NA,NA,NA,NA,NA,NA,NA,NA,NA,NA,NA,NA,NA,NA,NA,NA,NA,NA,NA,NA,NA,NA,NA,NA,NA,NA,NA,NA,NA,NA,NA,NA,NA,NA,NA,NA,NA,NA,NA,NA,NA,NA,NA,NA,NA,NA,NA,NA,NA,NA,NA,NA,NA,NA,NA,NA,NA,NA,NA,NA,NA,NA,NA,NA,NA,NA,NA,NA,NA,NA,NA,NA,NA,NA,NA,NA,NA,NA,NA,NA,NA,NA,,,NA
survey-html-form,130,241974,0.0-5.0-2.0,7ynpv8c34psnjr1,0,Windows,Chrome,3376.925000047777,,NA,"{""checkKeyYes"":""p"",""checkKeyNo"":""q""}",,instructionChecks,NA,TRUE,TRUE,NA,NA,NA,,NA,,,,,,,NA,,NA,,,,,,,,,,,NA,NA,NA,NA,NA,NA,NA,NA,NA,NA,NA,NA,NA,NA,NA,NA,NA,NA,NA,NA,NA,NA,NA,NA,NA,NA,NA,NA,NA,NA,NA,NA,NA,NA,NA,NA,NA,NA,NA,NA,NA,NA,NA,NA,NA,NA,NA,NA,NA,NA,NA,NA,NA,NA,NA,NA,NA,NA,NA,NA,NA,NA,NA,NA,NA,NA,NA,NA,NA,NA,NA,NA,NA,NA,NA,NA,NA,NA,NA,NA,NA,NA,NA,NA,NA,NA,NA,NA,NA,NA,NA,NA,,,NA
html-keyboard-response,131,243476,0.0-6.0-0.0,7ynpv8c34psnjr1,0,Windows,Chrome,NA,+,NA,,,fixation,NA,NA,NA,NA,NA,NA,,NA,,,,,,,NA,,NA,,,,,,,,,,,NA,NA,NA,NA,NA,NA,NA,NA,NA,NA,NA,NA,NA,NA,NA,NA,NA,NA,NA,NA,NA,NA,NA,NA,NA,NA,NA,NA,NA,NA,NA,NA,NA,NA,NA,NA,NA,NA,NA,NA,NA,NA,NA,NA,NA,NA,NA,NA,NA,NA,NA,NA,NA,NA,NA,NA,NA,NA,NA,NA,NA,NA,NA,NA,NA,NA,NA,NA,NA,NA,NA,NA,NA,NA,NA,NA,NA,NA,NA,NA,NA,NA,NA,NA,NA,NA,NA,NA,NA,NA,NA,NA,,,NA
image-keyboard-response,132,244134,0.0-6.0-1.0,7ynpv8c34psnjr1,0,Windows,Chrome,656.6400000010617,_faces/HF05_D_L.jpg,NA,,,emotionRatingFaceWindow,NA,NA,NA,81,4,1,happy,54,HF05_D_L,HF05,H,F,D,L,0,,NA,,,,,,,,,,,NA,NA,NA,NA,NA,NA,NA,NA,NA,NA,NA,NA,NA,NA,NA,NA,NA,NA,NA,NA,NA,NA,NA,NA,NA,NA,NA,NA,NA,NA,NA,NA,NA,NA,NA,NA,NA,NA,NA,NA,NA,NA,NA,NA,NA,NA,NA,NA,NA,NA,NA,NA,NA,NA,NA,NA,NA,NA,NA,NA,NA,NA,NA,NA,NA,NA,NA,NA,NA,NA,NA,NA,NA,NA,NA,NA,NA,NA,NA,NA,NA,NA,NA,NA,NA,NA,NA,NA,NA,NA,NA,NA,,,NA
html-keyboard-response,133,245135,0.0-6.0-0.1,7ynpv8c34psnjr1,0,Windows,Chrome,NA,+,NA,,,fixation,NA,NA,NA,NA,NA,NA,,NA,,,,,,,NA,,NA,,,,,,,,,,,NA,NA,NA,NA,NA,NA,NA,NA,NA,NA,NA,NA,NA,NA,NA,NA,NA,NA,NA,NA,NA,NA,NA,NA,NA,NA,NA,NA,NA,NA,NA,NA,NA,NA,NA,NA,NA,NA,NA,NA,NA,NA,NA,NA,NA,NA,NA,NA,NA,NA,NA,NA,NA,NA,NA,NA,NA,NA,NA,NA,NA,NA,NA,NA,NA,NA,NA,NA,NA,NA,NA,NA,NA,NA,NA,NA,NA,NA,NA,NA,NA,NA,NA,NA,NA,NA,NA,NA,NA,NA,NA,NA,,,NA
image-keyboard-response,134,245639,0.0-6.0-1.1,7ynpv8c34psnjr1,0,Windows,Chrome,503.19499999750406,_faces/WF05_A_X.jpg,NA,,,emotionRatingFaceWindow,NA,NA,NA,81,4,1,happy,55,WF05_A_X,WF05,W,F,A,X,0,,NA,,,,,,,,,,,NA,NA,NA,NA,NA,NA,NA,NA,NA,NA,NA,NA,NA,NA,NA,NA,NA,NA,NA,NA,NA,NA,NA,NA,NA,NA,NA,NA,NA,NA,NA,NA,NA,NA,NA,NA,NA,NA,NA,NA,NA,NA,NA,NA,NA,NA,NA,NA,NA,NA,NA,NA,NA,NA,NA,NA,NA,NA,NA,NA,NA,NA,NA,NA,NA,NA,NA,NA,NA,NA,NA,NA,NA,NA,NA,NA,NA,NA,NA,NA,NA,NA,NA,NA,NA,NA,NA,NA,NA,NA,NA,NA,,,NA
html-keyboard-response,135,246641,0.0-6.0-0.2,7ynpv8c34psnjr1,0,Windows,Chrome,NA,+,NA,,,fixation,NA,NA,NA,NA,NA,NA,,NA,,,,,,,NA,,NA,,,,,,,,,,,NA,NA,NA,NA,NA,NA,NA,NA,NA,NA,NA,NA,NA,NA,NA,NA,NA,NA,NA,NA,NA,NA,NA,NA,NA,NA,NA,NA,NA,NA,NA,NA,NA,NA,NA,NA,NA,NA,NA,NA,NA,NA,NA,NA,NA,NA,NA,NA,NA,NA,NA,NA,NA,NA,NA,NA,NA,NA,NA,NA,NA,NA,NA,NA,NA,NA,NA,NA,NA,NA,NA,NA,NA,NA,NA,NA,NA,NA,NA,NA,NA,NA,NA,NA,NA,NA,NA,NA,NA,NA,NA,NA,,,NA
image-keyboard-response,136,247102,0.0-6.0-1.2,7ynpv8c34psnjr1,0,Windows,Chrome,460.6499999645166,_faces/HM09_R_L.jpg,NA,,,emotionRatingFaceWindow,NA,NA,NA,81,4,1,happy,56,HM09_R_L,HM09,H,M,R,L,0,,NA,,,,,,,,,,,NA,NA,NA,NA,NA,NA,NA,NA,NA,NA,NA,NA,NA,NA,NA,NA,NA,NA,NA,NA,NA,NA,NA,NA,NA,NA,NA,NA,NA,NA,NA,NA,NA,NA,NA,NA,NA,NA,NA,NA,NA,NA,NA,NA,NA,NA,NA,NA,NA,NA,NA,NA,NA,NA,NA,NA,NA,NA,NA,NA,NA,NA,NA,NA,NA,NA,NA,NA,NA,NA,NA,NA,NA,NA,NA,NA,NA,NA,NA,NA,NA,NA,NA,NA,NA,NA,NA,NA,NA,NA,NA,NA,,,NA
html-keyboard-response,137,248103,0.0-6.0-0.3,7ynpv8c34psnjr1,0,Windows,Chrome,NA,+,NA,,,fixation,NA,NA,NA,NA,NA,NA,,NA,,,,,,,NA,,NA,,,,,,,,,,,NA,NA,NA,NA,NA,NA,NA,NA,NA,NA,NA,NA,NA,NA,NA,NA,NA,NA,NA,NA,NA,NA,NA,NA,NA,NA,NA,NA,NA,NA,NA,NA,NA,NA,NA,NA,NA,NA,NA,NA,NA,NA,NA,NA,NA,NA,NA,NA,NA,NA,NA,NA,NA,NA,NA,NA,NA,NA,NA,NA,NA,NA,NA,NA,NA,NA,NA,NA,NA,NA,NA,NA,NA,NA,NA,NA,NA,NA,NA,NA,NA,NA,NA,NA,NA,NA,NA,NA,NA,NA,NA,NA,,,NA
image-keyboard-response,138,248638,0.0-6.0-1.3,7ynpv8c34psnjr1,0,Windows,Chrome,534.4599999953061,_faces/AM11_D_U.jpg,NA,,,emotionRatingFaceWindow,NA,NA,NA,81,4,1,happy,57,AM11_D_U,AM11,A,M,D,U,0,,NA,,,,,,,,,,,NA,NA,NA,NA,NA,NA,NA,NA,NA,NA,NA,NA,NA,NA,NA,NA,NA,NA,NA,NA,NA,NA,NA,NA,NA,NA,NA,NA,NA,NA,NA,NA,NA,NA,NA,NA,NA,NA,NA,NA,NA,NA,NA,NA,NA,NA,NA,NA,NA,NA,NA,NA,NA,NA,NA,NA,NA,NA,NA,NA,NA,NA,NA,NA,NA,NA,NA,NA,NA,NA,NA,NA,NA,NA,NA,NA,NA,NA,NA,NA,NA,NA,NA,NA,NA,NA,NA,NA,NA,NA,NA,NA,,,NA
html-keyboard-response,139,249641,0.0-6.0-0.4,7ynpv8c34psnjr1,0,Windows,Chrome,NA,+,NA,,,fixation,NA,NA,NA,NA,NA,NA,,NA,,,,,,,NA,,NA,,,,,,,,,,,NA,NA,NA,NA,NA,NA,NA,NA,NA,NA,NA,NA,NA,NA,NA,NA,NA,NA,NA,NA,NA,NA,NA,NA,NA,NA,NA,NA,NA,NA,NA,NA,NA,NA,NA,NA,NA,NA,NA,NA,NA,NA,NA,NA,NA,NA,NA,NA,NA,NA,NA,NA,NA,NA,NA,NA,NA,NA,NA,NA,NA,NA,NA,NA,NA,NA,NA,NA,NA,NA,NA,NA,NA,NA,NA,NA,NA,NA,NA,NA,NA,NA,NA,NA,NA,NA,NA,NA,NA,NA,NA,NA,,,NA
image-keyboard-response,140,250230,0.0-6.0-1.4,7ynpv8c34psnjr1,0,Windows,Chrome,588.3299999986775,_faces/AF06_H_U.jpg,NA,,,emotionRatingFaceWindow,NA,NA,NA,80,4,1,happy,58,AF06_H_U,AF06,A,F,H,U,1,,NA,,,,,,,,,,,NA,NA,NA,NA,NA,NA,NA,NA,NA,NA,NA,NA,NA,NA,NA,NA,NA,NA,NA,NA,NA,NA,NA,NA,NA,NA,NA,NA,NA,NA,NA,NA,NA,NA,NA,NA,NA,NA,NA,NA,NA,NA,NA,NA,NA,NA,NA,NA,NA,NA,NA,NA,NA,NA,NA,NA,NA,NA,NA,NA,NA,NA,NA,NA,NA,NA,NA,NA,NA,NA,NA,NA,NA,NA,NA,NA,NA,NA,NA,NA,NA,NA,NA,NA,NA,NA,NA,NA,NA,NA,NA,NA,,,NA
html-keyboard-response,141,251231,0.0-6.0-0.5,7ynpv8c34psnjr1,0,Windows,Chrome,NA,+,NA,,,fixation,NA,NA,NA,NA,NA,NA,,NA,,,,,,,NA,,NA,,,,,,,,,,,NA,NA,NA,NA,NA,NA,NA,NA,NA,NA,NA,NA,NA,NA,NA,NA,NA,NA,NA,NA,NA,NA,NA,NA,NA,NA,NA,NA,NA,NA,NA,NA,NA,NA,NA,NA,NA,NA,NA,NA,NA,NA,NA,NA,NA,NA,NA,NA,NA,NA,NA,NA,NA,NA,NA,NA,NA,NA,NA,NA,NA,NA,NA,NA,NA,NA,NA,NA,NA,NA,NA,NA,NA,NA,NA,NA,NA,NA,NA,NA,NA,NA,NA,NA,NA,NA,NA,NA,NA,NA,NA,NA,,,NA
image-keyboard-response,142,251807,0.0-6.0-1.5,7ynpv8c34psnjr1,0,Windows,Chrome,574.8549999552779,_faces/HF04_A_X.jpg,NA,,,emotionRatingFaceWindow,NA,NA,NA,81,4,1,happy,59,HF04_A_X,HF04,H,F,A,X,0,,NA,,,,,,,,,,,NA,NA,NA,NA,NA,NA,NA,NA,NA,NA,NA,NA,NA,NA,NA,NA,NA,NA,NA,NA,NA,NA,NA,NA,NA,NA,NA,NA,NA,NA,NA,NA,NA,NA,NA,NA,NA,NA,NA,NA,NA,NA,NA,NA,NA,NA,NA,NA,NA,NA,NA,NA,NA,NA,NA,NA,NA,NA,NA,NA,NA,NA,NA,NA,NA,NA,NA,NA,NA,NA,NA,NA,NA,NA,NA,NA,NA,NA,NA,NA,NA,NA,NA,NA,NA,NA,NA,NA,NA,NA,NA,NA,,,NA
html-keyboard-response,143,252808,0.0-6.0-0.6,7ynpv8c34psnjr1,0,Windows,Chrome,NA,+,NA,,,fixation,NA,NA,NA,NA,NA,NA,,NA,,,,,,,NA,,NA,,,,,,,,,,,NA,NA,NA,NA,NA,NA,NA,NA,NA,NA,NA,NA,NA,NA,NA,NA,NA,NA,NA,NA,NA,NA,NA,NA,NA,NA,NA,NA,NA,NA,NA,NA,NA,NA,NA,NA,NA,NA,NA,NA,NA,NA,NA,NA,NA,NA,NA,NA,NA,NA,NA,NA,NA,NA,NA,NA,NA,NA,NA,NA,NA,NA,NA,NA,NA,NA,NA,NA,NA,NA,NA,NA,NA,NA,NA,NA,NA,NA,NA,NA,NA,NA,NA,NA,NA,NA,NA,NA,NA,NA,NA,NA,,,NA
image-keyboard-response,144,253543,0.0-6.0-1.6,7ynpv8c34psnjr1,0,Windows,Chrome,733.9599999831989,_faces/AF06_H_L.jpg,NA,,,emotionRatingFaceWindow,NA,NA,NA,81,4,1,happy,60,AF06_H_L,AF06,A,F,H,L,0,,NA,,,,,,,,,,,NA,NA,NA,NA,NA,NA,NA,NA,NA,NA,NA,NA,NA,NA,NA,NA,NA,NA,NA,NA,NA,NA,NA,NA,NA,NA,NA,NA,NA,NA,NA,NA,NA,NA,NA,NA,NA,NA,NA,NA,NA,NA,NA,NA,NA,NA,NA,NA,NA,NA,NA,NA,NA,NA,NA,NA,NA,NA,NA,NA,NA,NA,NA,NA,NA,NA,NA,NA,NA,NA,NA,NA,NA,NA,NA,NA,NA,NA,NA,NA,NA,NA,NA,NA,NA,NA,NA,NA,NA,NA,NA,NA,,,NA
html-keyboard-response,145,254544,0.0-6.0-0.7,7ynpv8c34psnjr1,0,Windows,Chrome,NA,+,NA,,,fixation,NA,NA,NA,NA,NA,NA,,NA,,,,,,,NA,,NA,,,,,,,,,,,NA,NA,NA,NA,NA,NA,NA,NA,NA,NA,NA,NA,NA,NA,NA,NA,NA,NA,NA,NA,NA,NA,NA,NA,NA,NA,NA,NA,NA,NA,NA,NA,NA,NA,NA,NA,NA,NA,NA,NA,NA,NA,NA,NA,NA,NA,NA,NA,NA,NA,NA,NA,NA,NA,NA,NA,NA,NA,NA,NA,NA,NA,NA,NA,NA,NA,NA,NA,NA,NA,NA,NA,NA,NA,NA,NA,NA,NA,NA,NA,NA,NA,NA,NA,NA,NA,NA,NA,NA,NA,NA,NA,,,NA
image-keyboard-response,146,255094,0.0-6.0-1.7,7ynpv8c34psnjr1,0,Windows,Chrome,549.4000000180677,_faces/BM16_R_U.jpg,NA,,,emotionRatingFaceWindow,NA,NA,NA,81,4,1,happy,61,BM16_R_U,BM16,B,M,R,U,0,,NA,,,,,,,,,,,NA,NA,NA,NA,NA,NA,NA,NA,NA,NA,NA,NA,NA,NA,NA,NA,NA,NA,NA,NA,NA,NA,NA,NA,NA,NA,NA,NA,NA,NA,NA,NA,NA,NA,NA,NA,NA,NA,NA,NA,NA,NA,NA,NA,NA,NA,NA,NA,NA,NA,NA,NA,NA,NA,NA,NA,NA,NA,NA,NA,NA,NA,NA,NA,NA,NA,NA,NA,NA,NA,NA,NA,NA,NA,NA,NA,NA,NA,NA,NA,NA,NA,NA,NA,NA,NA,NA,NA,NA,NA,NA,NA,,,NA
html-keyboard-response,147,256096,0.0-6.0-0.8,7ynpv8c34psnjr1,0,Windows,Chrome,NA,+,NA,,,fixation,NA,NA,NA,NA,NA,NA,,NA,,,,,,,NA,,NA,,,,,,,,,,,NA,NA,NA,NA,NA,NA,NA,NA,NA,NA,NA,NA,NA,NA,NA,NA,NA,NA,NA,NA,NA,NA,NA,NA,NA,NA,NA,NA,NA,NA,NA,NA,NA,NA,NA,NA,NA,NA,NA,NA,NA,NA,NA,NA,NA,NA,NA,NA,NA,NA,NA,NA,NA,NA,NA,NA,NA,NA,NA,NA,NA,NA,NA,NA,NA,NA,NA,NA,NA,NA,NA,NA,NA,NA,NA,NA,NA,NA,NA,NA,NA,NA,NA,NA,NA,NA,NA,NA,NA,NA,NA,NA,,,NA
image-keyboard-response,148,256775,0.0-6.0-1.8,7ynpv8c34psnjr1,0,Windows,Chrome,678.0000000144355,_faces/WM09_D_L.jpg,NA,,,emotionRatingFaceWindow,NA,NA,NA,81,4,1,happy,62,WM09_D_L,WM09,W,M,D,L,0,,NA,,,,,,,,,,,NA,NA,NA,NA,NA,NA,NA,NA,NA,NA,NA,NA,NA,NA,NA,NA,NA,NA,NA,NA,NA,NA,NA,NA,NA,NA,NA,NA,NA,NA,NA,NA,NA,NA,NA,NA,NA,NA,NA,NA,NA,NA,NA,NA,NA,NA,NA,NA,NA,NA,NA,NA,NA,NA,NA,NA,NA,NA,NA,NA,NA,NA,NA,NA,NA,NA,NA,NA,NA,NA,NA,NA,NA,NA,NA,NA,NA,NA,NA,NA,NA,NA,NA,NA,NA,NA,NA,NA,NA,NA,NA,NA,,,NA
html-keyboard-response,149,257777,0.0-6.0-0.9,7ynpv8c34psnjr1,0,Windows,Chrome,NA,+,NA,,,fixation,NA,NA,NA,NA,NA,NA,,NA,,,,,,,NA,,NA,,,,,,,,,,,NA,NA,NA,NA,NA,NA,NA,NA,NA,NA,NA,NA,NA,NA,NA,NA,NA,NA,NA,NA,NA,NA,NA,NA,NA,NA,NA,NA,NA,NA,NA,NA,NA,NA,NA,NA,NA,NA,NA,NA,NA,NA,NA,NA,NA,NA,NA,NA,NA,NA,NA,NA,NA,NA,NA,NA,NA,NA,NA,NA,NA,NA,NA,NA,NA,NA,NA,NA,NA,NA,NA,NA,NA,NA,NA,NA,NA,NA,NA,NA,NA,NA,NA,NA,NA,NA,NA,NA,NA,NA,NA,NA,,,NA
image-keyboard-response,150,258350,0.0-6.0-1.9,7ynpv8c34psnjr1,0,Windows,Chrome,572.3700000089593,_faces/WF02_S_U.jpg,NA,,,emotionRatingFaceWindow,NA,NA,NA,81,4,1,happy,63,WF02_S_U,WF02,W,F,S,U,0,,NA,,,,,,,,,,,NA,NA,NA,NA,NA,NA,NA,NA,NA,NA,NA,NA,NA,NA,NA,NA,NA,NA,NA,NA,NA,NA,NA,NA,NA,NA,NA,NA,NA,NA,NA,NA,NA,NA,NA,NA,NA,NA,NA,NA,NA,NA,NA,NA,NA,NA,NA,NA,NA,NA,NA,NA,NA,NA,NA,NA,NA,NA,NA,NA,NA,NA,NA,NA,NA,NA,NA,NA,NA,NA,NA,NA,NA,NA,NA,NA,NA,NA,NA,NA,NA,NA,NA,NA,NA,NA,NA,NA,NA,NA,NA,NA,,,NA
html-keyboard-response,151,259351,0.0-6.0-0.10,7ynpv8c34psnjr1,0,Windows,Chrome,NA,+,NA,,,fixation,NA,NA,NA,NA,NA,NA,,NA,,,,,,,NA,,NA,,,,,,,,,,,NA,NA,NA,NA,NA,NA,NA,NA,NA,NA,NA,NA,NA,NA,NA,NA,NA,NA,NA,NA,NA,NA,NA,NA,NA,NA,NA,NA,NA,NA,NA,NA,NA,NA,NA,NA,NA,NA,NA,NA,NA,NA,NA,NA,NA,NA,NA,NA,NA,NA,NA,NA,NA,NA,NA,NA,NA,NA,NA,NA,NA,NA,NA,NA,NA,NA,NA,NA,NA,NA,NA,NA,NA,NA,NA,NA,NA,NA,NA,NA,NA,NA,NA,NA,NA,NA,NA,NA,NA,NA,NA,NA,,,NA
image-keyboard-response,152,259822,0.0-6.0-1.10,7ynpv8c34psnjr1,0,Windows,Chrome,470.934999990277,_faces/HM09_R_U.jpg,NA,,,emotionRatingFaceWindow,NA,NA,NA,81,4,1,happy,64,HM09_R_U,HM09,H,M,R,U,0,,NA,,,,,,,,,,,NA,NA,NA,NA,NA,NA,NA,NA,NA,NA,NA,NA,NA,NA,NA,NA,NA,NA,NA,NA,NA,NA,NA,NA,NA,NA,NA,NA,NA,NA,NA,NA,NA,NA,NA,NA,NA,NA,NA,NA,NA,NA,NA,NA,NA,NA,NA,NA,NA,NA,NA,NA,NA,NA,NA,NA,NA,NA,NA,NA,NA,NA,NA,NA,NA,NA,NA,NA,NA,NA,NA,NA,NA,NA,NA,NA,NA,NA,NA,NA,NA,NA,NA,NA,NA,NA,NA,NA,NA,NA,NA,NA,,,NA
html-keyboard-response,153,260824,0.0-6.0-0.11,7ynpv8c34psnjr1,0,Windows,Chrome,NA,+,NA,,,fixation,NA,NA,NA,NA,NA,NA,,NA,,,,,,,NA,,NA,,,,,,,,,,,NA,NA,NA,NA,NA,NA,NA,NA,NA,NA,NA,NA,NA,NA,NA,NA,NA,NA,NA,NA,NA,NA,NA,NA,NA,NA,NA,NA,NA,NA,NA,NA,NA,NA,NA,NA,NA,NA,NA,NA,NA,NA,NA,NA,NA,NA,NA,NA,NA,NA,NA,NA,NA,NA,NA,NA,NA,NA,NA,NA,NA,NA,NA,NA,NA,NA,NA,NA,NA,NA,NA,NA,NA,NA,NA,NA,NA,NA,NA,NA,NA,NA,NA,NA,NA,NA,NA,NA,NA,NA,NA,NA,,,NA
image-keyboard-response,154,261438,0.0-6.0-1.11,7ynpv8c34psnjr1,0,Windows,Chrome,614.0149999991991,_faces/HM08_H_X.jpg,NA,,,emotionRatingFaceWindow,NA,NA,NA,80,4,1,happy,65,HM08_H_X,HM08,H,M,H,X,1,,NA,,,,,,,,,,,NA,NA,NA,NA,NA,NA,NA,NA,NA,NA,NA,NA,NA,NA,NA,NA,NA,NA,NA,NA,NA,NA,NA,NA,NA,NA,NA,NA,NA,NA,NA,NA,NA,NA,NA,NA,NA,NA,NA,NA,NA,NA,NA,NA,NA,NA,NA,NA,NA,NA,NA,NA,NA,NA,NA,NA,NA,NA,NA,NA,NA,NA,NA,NA,NA,NA,NA,NA,NA,NA,NA,NA,NA,NA,NA,NA,NA,NA,NA,NA,NA,NA,NA,NA,NA,NA,NA,NA,NA,NA,NA,NA,,,NA
html-keyboard-response,155,262439,0.0-6.0-0.12,7ynpv8c34psnjr1,0,Windows,Chrome,NA,+,NA,,,fixation,NA,NA,NA,NA,NA,NA,,NA,,,,,,,NA,,NA,,,,,,,,,,,NA,NA,NA,NA,NA,NA,NA,NA,NA,NA,NA,NA,NA,NA,NA,NA,NA,NA,NA,NA,NA,NA,NA,NA,NA,NA,NA,NA,NA,NA,NA,NA,NA,NA,NA,NA,NA,NA,NA,NA,NA,NA,NA,NA,NA,NA,NA,NA,NA,NA,NA,NA,NA,NA,NA,NA,NA,NA,NA,NA,NA,NA,NA,NA,NA,NA,NA,NA,NA,NA,NA,NA,NA,NA,NA,NA,NA,NA,NA,NA,NA,NA,NA,NA,NA,NA,NA,NA,NA,NA,NA,NA,,,NA
image-keyboard-response,156,262934,0.0-6.0-1.12,7ynpv8c34psnjr1,0,Windows,Chrome,494.54000004334375,_faces/BM17_S_U.jpg,NA,,,emotionRatingFaceWindow,NA,NA,NA,81,4,1,happy,66,BM17_S_U,BM17,B,M,S,U,0,,NA,,,,,,,,,,,NA,NA,NA,NA,NA,NA,NA,NA,NA,NA,NA,NA,NA,NA,NA,NA,NA,NA,NA,NA,NA,NA,NA,NA,NA,NA,NA,NA,NA,NA,NA,NA,NA,NA,NA,NA,NA,NA,NA,NA,NA,NA,NA,NA,NA,NA,NA,NA,NA,NA,NA,NA,NA,NA,NA,NA,NA,NA,NA,NA,NA,NA,NA,NA,NA,NA,NA,NA,NA,NA,NA,NA,NA,NA,NA,NA,NA,NA,NA,NA,NA,NA,NA,NA,NA,NA,NA,NA,NA,NA,NA,NA,,,NA
html-keyboard-response,157,263935,0.0-6.0-0.13,7ynpv8c34psnjr1,0,Windows,Chrome,NA,+,NA,,,fixation,NA,NA,NA,NA,NA,NA,,NA,,,,,,,NA,,NA,,,,,,,,,,,NA,NA,NA,NA,NA,NA,NA,NA,NA,NA,NA,NA,NA,NA,NA,NA,NA,NA,NA,NA,NA,NA,NA,NA,NA,NA,NA,NA,NA,NA,NA,NA,NA,NA,NA,NA,NA,NA,NA,NA,NA,NA,NA,NA,NA,NA,NA,NA,NA,NA,NA,NA,NA,NA,NA,NA,NA,NA,NA,NA,NA,NA,NA,NA,NA,NA,NA,NA,NA,NA,NA,NA,NA,NA,NA,NA,NA,NA,NA,NA,NA,NA,NA,NA,NA,NA,NA,NA,NA,NA,NA,NA,,,NA
image-keyboard-response,158,264455,0.0-6.0-1.13,7ynpv8c34psnjr1,0,Windows,Chrome,518.8099999795668,_faces/BF10_F_L.jpg,NA,,,emotionRatingFaceWindow,NA,NA,NA,81,4,1,happy,67,BF10_F_L,BF10,B,F,F,L,0,,NA,,,,,,,,,,,NA,NA,NA,NA,NA,NA,NA,NA,NA,NA,NA,NA,NA,NA,NA,NA,NA,NA,NA,NA,NA,NA,NA,NA,NA,NA,NA,NA,NA,NA,NA,NA,NA,NA,NA,NA,NA,NA,NA,NA,NA,NA,NA,NA,NA,NA,NA,NA,NA,NA,NA,NA,NA,NA,NA,NA,NA,NA,NA,NA,NA,NA,NA,NA,NA,NA,NA,NA,NA,NA,NA,NA,NA,NA,NA,NA,NA,NA,NA,NA,NA,NA,NA,NA,NA,NA,NA,NA,NA,NA,NA,NA,,,NA
html-keyboard-response,159,265456,0.0-6.0-0.14,7ynpv8c34psnjr1,0,Windows,Chrome,NA,+,NA,,,fixation,NA,NA,NA,NA,NA,NA,,NA,,,,,,,NA,,NA,,,,,,,,,,,NA,NA,NA,NA,NA,NA,NA,NA,NA,NA,NA,NA,NA,NA,NA,NA,NA,NA,NA,NA,NA,NA,NA,NA,NA,NA,NA,NA,NA,NA,NA,NA,NA,NA,NA,NA,NA,NA,NA,NA,NA,NA,NA,NA,NA,NA,NA,NA,NA,NA,NA,NA,NA,NA,NA,NA,NA,NA,NA,NA,NA,NA,NA,NA,NA,NA,NA,NA,NA,NA,NA,NA,NA,NA,NA,NA,NA,NA,NA,NA,NA,NA,NA,NA,NA,NA,NA,NA,NA,NA,NA,NA,,,NA
image-keyboard-response,160,266031,0.0-6.0-1.14,7ynpv8c34psnjr1,0,Windows,Chrome,574.5250000036322,_faces/BM16_R_L.jpg,NA,,,emotionRatingFaceWindow,NA,NA,NA,81,4,1,happy,68,BM16_R_L,BM16,B,M,R,L,0,,NA,,,,,,,,,,,NA,NA,NA,NA,NA,NA,NA,NA,NA,NA,NA,NA,NA,NA,NA,NA,NA,NA,NA,NA,NA,NA,NA,NA,NA,NA,NA,NA,NA,NA,NA,NA,NA,NA,NA,NA,NA,NA,NA,NA,NA,NA,NA,NA,NA,NA,NA,NA,NA,NA,NA,NA,NA,NA,NA,NA,NA,NA,NA,NA,NA,NA,NA,NA,NA,NA,NA,NA,NA,NA,NA,NA,NA,NA,NA,NA,NA,NA,NA,NA,NA,NA,NA,NA,NA,NA,NA,NA,NA,NA,NA,NA,,,NA
html-keyboard-response,161,267032,0.0-6.0-0.15,7ynpv8c34psnjr1,0,Windows,Chrome,NA,+,NA,,,fixation,NA,NA,NA,NA,NA,NA,,NA,,,,,,,NA,,NA,,,,,,,,,,,NA,NA,NA,NA,NA,NA,NA,NA,NA,NA,NA,NA,NA,NA,NA,NA,NA,NA,NA,NA,NA,NA,NA,NA,NA,NA,NA,NA,NA,NA,NA,NA,NA,NA,NA,NA,NA,NA,NA,NA,NA,NA,NA,NA,NA,NA,NA,NA,NA,NA,NA,NA,NA,NA,NA,NA,NA,NA,NA,NA,NA,NA,NA,NA,NA,NA,NA,NA,NA,NA,NA,NA,NA,NA,NA,NA,NA,NA,NA,NA,NA,NA,NA,NA,NA,NA,NA,NA,NA,NA,NA,NA,,,NA
image-keyboard-response,162,267775,0.0-6.0-1.15,7ynpv8c34psnjr1,0,Windows,Chrome,742.4900000332855,_faces/BM16_R_X.jpg,NA,,,emotionRatingFaceWindow,NA,NA,NA,81,4,1,happy,69,BM16_R_X,BM16,B,M,R,X,0,,NA,,,,,,,,,,,NA,NA,NA,NA,NA,NA,NA,NA,NA,NA,NA,NA,NA,NA,NA,NA,NA,NA,NA,NA,NA,NA,NA,NA,NA,NA,NA,NA,NA,NA,NA,NA,NA,NA,NA,NA,NA,NA,NA,NA,NA,NA,NA,NA,NA,NA,NA,NA,NA,NA,NA,NA,NA,NA,NA,NA,NA,NA,NA,NA,NA,NA,NA,NA,NA,NA,NA,NA,NA,NA,NA,NA,NA,NA,NA,NA,NA,NA,NA,NA,NA,NA,NA,NA,NA,NA,NA,NA,NA,NA,NA,NA,,,NA
html-keyboard-response,163,268776,0.0-6.0-0.16,7ynpv8c34psnjr1,0,Windows,Chrome,NA,+,NA,,,fixation,NA,NA,NA,NA,NA,NA,,NA,,,,,,,NA,,NA,,,,,,,,,,,NA,NA,NA,NA,NA,NA,NA,NA,NA,NA,NA,NA,NA,NA,NA,NA,NA,NA,NA,NA,NA,NA,NA,NA,NA,NA,NA,NA,NA,NA,NA,NA,NA,NA,NA,NA,NA,NA,NA,NA,NA,NA,NA,NA,NA,NA,NA,NA,NA,NA,NA,NA,NA,NA,NA,NA,NA,NA,NA,NA,NA,NA,NA,NA,NA,NA,NA,NA,NA,NA,NA,NA,NA,NA,NA,NA,NA,NA,NA,NA,NA,NA,NA,NA,NA,NA,NA,NA,NA,NA,NA,NA,,,NA
image-keyboard-response,164,269278,0.0-6.0-1.16,7ynpv8c34psnjr1,0,Windows,Chrome,501.6600000089966,_faces/WM13_F_U.jpg,NA,,,emotionRatingFaceWindow,NA,NA,NA,81,4,1,happy,70,WM13_F_U,WM13,W,M,F,U,0,,NA,,,,,,,,,,,NA,NA,NA,NA,NA,NA,NA,NA,NA,NA,NA,NA,NA,NA,NA,NA,NA,NA,NA,NA,NA,NA,NA,NA,NA,NA,NA,NA,NA,NA,NA,NA,NA,NA,NA,NA,NA,NA,NA,NA,NA,NA,NA,NA,NA,NA,NA,NA,NA,NA,NA,NA,NA,NA,NA,NA,NA,NA,NA,NA,NA,NA,NA,NA,NA,NA,NA,NA,NA,NA,NA,NA,NA,NA,NA,NA,NA,NA,NA,NA,NA,NA,NA,NA,NA,NA,NA,NA,NA,NA,NA,NA,,,NA
html-keyboard-response,165,270287,0.0-6.0-0.17,7ynpv8c34psnjr1,0,Windows,Chrome,NA,+,NA,,,fixation,NA,NA,NA,NA,NA,NA,,NA,,,,,,,NA,,NA,,,,,,,,,,,NA,NA,NA,NA,NA,NA,NA,NA,NA,NA,NA,NA,NA,NA,NA,NA,NA,NA,NA,NA,NA,NA,NA,NA,NA,NA,NA,NA,NA,NA,NA,NA,NA,NA,NA,NA,NA,NA,NA,NA,NA,NA,NA,NA,NA,NA,NA,NA,NA,NA,NA,NA,NA,NA,NA,NA,NA,NA,NA,NA,NA,NA,NA,NA,NA,NA,NA,NA,NA,NA,NA,NA,NA,NA,NA,NA,NA,NA,NA,NA,NA,NA,NA,NA,NA,NA,NA,NA,NA,NA,NA,NA,,,NA
image-keyboard-response,166,270854,0.0-6.0-1.17,7ynpv8c34psnjr1,0,Windows,Chrome,565.9300000406802,_faces/WM09_D_X.jpg,NA,,,emotionRatingFaceWindow,NA,NA,NA,81,4,1,happy,71,WM09_D_X,WM09,W,M,D,X,0,,NA,,,,,,,,,,,NA,NA,NA,NA,NA,NA,NA,NA,NA,NA,NA,NA,NA,NA,NA,NA,NA,NA,NA,NA,NA,NA,NA,NA,NA,NA,NA,NA,NA,NA,NA,NA,NA,NA,NA,NA,NA,NA,NA,NA,NA,NA,NA,NA,NA,NA,NA,NA,NA,NA,NA,NA,NA,NA,NA,NA,NA,NA,NA,NA,NA,NA,NA,NA,NA,NA,NA,NA,NA,NA,NA,NA,NA,NA,NA,NA,NA,NA,NA,NA,NA,NA,NA,NA,NA,NA,NA,NA,NA,NA,NA,NA,,,NA
html-keyboard-response,167,271856,0.0-6.0-0.18,7ynpv8c34psnjr1,0,Windows,Chrome,NA,+,NA,,,fixation,NA,NA,NA,NA,NA,NA,,NA,,,,,,,NA,,NA,,,,,,,,,,,NA,NA,NA,NA,NA,NA,NA,NA,NA,NA,NA,NA,NA,NA,NA,NA,NA,NA,NA,NA,NA,NA,NA,NA,NA,NA,NA,NA,NA,NA,NA,NA,NA,NA,NA,NA,NA,NA,NA,NA,NA,NA,NA,NA,NA,NA,NA,NA,NA,NA,NA,NA,NA,NA,NA,NA,NA,NA,NA,NA,NA,NA,NA,NA,NA,NA,NA,NA,NA,NA,NA,NA,NA,NA,NA,NA,NA,NA,NA,NA,NA,NA,NA,NA,NA,NA,NA,NA,NA,NA,NA,NA,,,NA
image-keyboard-response,168,272630,0.0-6.0-1.18,7ynpv8c34psnjr1,0,Windows,Chrome,773.1199999689125,_faces/HF09_F_L.jpg,NA,,,emotionRatingFaceWindow,NA,NA,NA,81,4,1,happy,72,HF09_F_L,HF09,H,F,F,L,0,,NA,,,,,,,,,,,NA,NA,NA,NA,NA,NA,NA,NA,NA,NA,NA,NA,NA,NA,NA,NA,NA,NA,NA,NA,NA,NA,NA,NA,NA,NA,NA,NA,NA,NA,NA,NA,NA,NA,NA,NA,NA,NA,NA,NA,NA,NA,NA,NA,NA,NA,NA,NA,NA,NA,NA,NA,NA,NA,NA,NA,NA,NA,NA,NA,NA,NA,NA,NA,NA,NA,NA,NA,NA,NA,NA,NA,NA,NA,NA,NA,NA,NA,NA,NA,NA,NA,NA,NA,NA,NA,NA,NA,NA,NA,NA,NA,,,NA
html-keyboard-response,169,273630,0.0-6.0-0.19,7ynpv8c34psnjr1,0,Windows,Chrome,NA,+,NA,,,fixation,NA,NA,NA,NA,NA,NA,,NA,,,,,,,NA,,NA,,,,,,,,,,,NA,NA,NA,NA,NA,NA,NA,NA,NA,NA,NA,NA,NA,NA,NA,NA,NA,NA,NA,NA,NA,NA,NA,NA,NA,NA,NA,NA,NA,NA,NA,NA,NA,NA,NA,NA,NA,NA,NA,NA,NA,NA,NA,NA,NA,NA,NA,NA,NA,NA,NA,NA,NA,NA,NA,NA,NA,NA,NA,NA,NA,NA,NA,NA,NA,NA,NA,NA,NA,NA,NA,NA,NA,NA,NA,NA,NA,NA,NA,NA,NA,NA,NA,NA,NA,NA,NA,NA,NA,NA,NA,NA,,,NA
image-keyboard-response,170,274382,0.0-6.0-1.19,7ynpv8c34psnjr1,0,Windows,Chrome,751.2599999899976,_faces/WF02_S_L.jpg,NA,,,emotionRatingFaceWindow,NA,NA,NA,81,4,1,happy,73,WF02_S_L,WF02,W,F,S,L,0,,NA,,,,,,,,,,,NA,NA,NA,NA,NA,NA,NA,NA,NA,NA,NA,NA,NA,NA,NA,NA,NA,NA,NA,NA,NA,NA,NA,NA,NA,NA,NA,NA,NA,NA,NA,NA,NA,NA,NA,NA,NA,NA,NA,NA,NA,NA,NA,NA,NA,NA,NA,NA,NA,NA,NA,NA,NA,NA,NA,NA,NA,NA,NA,NA,NA,NA,NA,NA,NA,NA,NA,NA,NA,NA,NA,NA,NA,NA,NA,NA,NA,NA,NA,NA,NA,NA,NA,NA,NA,NA,NA,NA,NA,NA,NA,NA,,,NA
html-keyboard-response,171,275384,0.0-6.0-0.20,7ynpv8c34psnjr1,0,Windows,Chrome,NA,+,NA,,,fixation,NA,NA,NA,NA,NA,NA,,NA,,,,,,,NA,,NA,,,,,,,,,,,NA,NA,NA,NA,NA,NA,NA,NA,NA,NA,NA,NA,NA,NA,NA,NA,NA,NA,NA,NA,NA,NA,NA,NA,NA,NA,NA,NA,NA,NA,NA,NA,NA,NA,NA,NA,NA,NA,NA,NA,NA,NA,NA,NA,NA,NA,NA,NA,NA,NA,NA,NA,NA,NA,NA,NA,NA,NA,NA,NA,NA,NA,NA,NA,NA,NA,NA,NA,NA,NA,NA,NA,NA,NA,NA,NA,NA,NA,NA,NA,NA,NA,NA,NA,NA,NA,NA,NA,NA,NA,NA,NA,,,NA
image-keyboard-response,172,276062,0.0-6.0-1.20,7ynpv8c34psnjr1,0,Windows,Chrome,677.5899999774992,_faces/AM11_D_L.jpg,NA,,,emotionRatingFaceWindow,NA,NA,NA,81,4,1,happy,74,AM11_D_L,AM11,A,M,D,L,0,,NA,,,,,,,,,,,NA,NA,NA,NA,NA,NA,NA,NA,NA,NA,NA,NA,NA,NA,NA,NA,NA,NA,NA,NA,NA,NA,NA,NA,NA,NA,NA,NA,NA,NA,NA,NA,NA,NA,NA,NA,NA,NA,NA,NA,NA,NA,NA,NA,NA,NA,NA,NA,NA,NA,NA,NA,NA,NA,NA,NA,NA,NA,NA,NA,NA,NA,NA,NA,NA,NA,NA,NA,NA,NA,NA,NA,NA,NA,NA,NA,NA,NA,NA,NA,NA,NA,NA,NA,NA,NA,NA,NA,NA,NA,NA,NA,,,NA
html-keyboard-response,173,277063,0.0-6.0-0.21,7ynpv8c34psnjr1,0,Windows,Chrome,NA,+,NA,,,fixation,NA,NA,NA,NA,NA,NA,,NA,,,,,,,NA,,NA,,,,,,,,,,,NA,NA,NA,NA,NA,NA,NA,NA,NA,NA,NA,NA,NA,NA,NA,NA,NA,NA,NA,NA,NA,NA,NA,NA,NA,NA,NA,NA,NA,NA,NA,NA,NA,NA,NA,NA,NA,NA,NA,NA,NA,NA,NA,NA,NA,NA,NA,NA,NA,NA,NA,NA,NA,NA,NA,NA,NA,NA,NA,NA,NA,NA,NA,NA,NA,NA,NA,NA,NA,NA,NA,NA,NA,NA,NA,NA,NA,NA,NA,NA,NA,NA,NA,NA,NA,NA,NA,NA,NA,NA,NA,NA,,,NA
image-keyboard-response,174,277686,0.0-6.0-1.21,7ynpv8c34psnjr1,0,Windows,Chrome,622.365000017453,_faces/AM07_A_U.jpg,NA,,,emotionRatingFaceWindow,NA,NA,NA,81,4,1,happy,75,AM07_A_U,AM07,A,M,A,U,0,,NA,,,,,,,,,,,NA,NA,NA,NA,NA,NA,NA,NA,NA,NA,NA,NA,NA,NA,NA,NA,NA,NA,NA,NA,NA,NA,NA,NA,NA,NA,NA,NA,NA,NA,NA,NA,NA,NA,NA,NA,NA,NA,NA,NA,NA,NA,NA,NA,NA,NA,NA,NA,NA,NA,NA,NA,NA,NA,NA,NA,NA,NA,NA,NA,NA,NA,NA,NA,NA,NA,NA,NA,NA,NA,NA,NA,NA,NA,NA,NA,NA,NA,NA,NA,NA,NA,NA,NA,NA,NA,NA,NA,NA,NA,NA,NA,,,NA
html-keyboard-response,175,278687,0.0-6.0-0.22,7ynpv8c34psnjr1,0,Windows,Chrome,NA,+,NA,,,fixation,NA,NA,NA,NA,NA,NA,,NA,,,,,,,NA,,NA,,,,,,,,,,,NA,NA,NA,NA,NA,NA,NA,NA,NA,NA,NA,NA,NA,NA,NA,NA,NA,NA,NA,NA,NA,NA,NA,NA,NA,NA,NA,NA,NA,NA,NA,NA,NA,NA,NA,NA,NA,NA,NA,NA,NA,NA,NA,NA,NA,NA,NA,NA,NA,NA,NA,NA,NA,NA,NA,NA,NA,NA,NA,NA,NA,NA,NA,NA,NA,NA,NA,NA,NA,NA,NA,NA,NA,NA,NA,NA,NA,NA,NA,NA,NA,NA,NA,NA,NA,NA,NA,NA,NA,NA,NA,NA,,,NA
image-keyboard-response,176,279423,0.0-6.0-1.22,7ynpv8c34psnjr1,0,Windows,Chrome,736.254999996163,_faces/WF05_A_L.jpg,NA,,,emotionRatingFaceWindow,NA,NA,NA,81,4,1,happy,76,WF05_A_L,WF05,W,F,A,L,0,,NA,,,,,,,,,,,NA,NA,NA,NA,NA,NA,NA,NA,NA,NA,NA,NA,NA,NA,NA,NA,NA,NA,NA,NA,NA,NA,NA,NA,NA,NA,NA,NA,NA,NA,NA,NA,NA,NA,NA,NA,NA,NA,NA,NA,NA,NA,NA,NA,NA,NA,NA,NA,NA,NA,NA,NA,NA,NA,NA,NA,NA,NA,NA,NA,NA,NA,NA,NA,NA,NA,NA,NA,NA,NA,NA,NA,NA,NA,NA,NA,NA,NA,NA,NA,NA,NA,NA,NA,NA,NA,NA,NA,NA,NA,NA,NA,,,NA
html-keyboard-response,177,280425,0.0-6.0-0.23,7ynpv8c34psnjr1,0,Windows,Chrome,NA,+,NA,,,fixation,NA,NA,NA,NA,NA,NA,,NA,,,,,,,NA,,NA,,,,,,,,,,,NA,NA,NA,NA,NA,NA,NA,NA,NA,NA,NA,NA,NA,NA,NA,NA,NA,NA,NA,NA,NA,NA,NA,NA,NA,NA,NA,NA,NA,NA,NA,NA,NA,NA,NA,NA,NA,NA,NA,NA,NA,NA,NA,NA,NA,NA,NA,NA,NA,NA,NA,NA,NA,NA,NA,NA,NA,NA,NA,NA,NA,NA,NA,NA,NA,NA,NA,NA,NA,NA,NA,NA,NA,NA,NA,NA,NA,NA,NA,NA,NA,NA,NA,NA,NA,NA,NA,NA,NA,NA,NA,NA,,,NA
image-keyboard-response,178,280934,0.0-6.0-1.23,7ynpv8c34psnjr1,0,Windows,Chrome,508.8650000398047,_faces/AM04_S_L.jpg,NA,,,emotionRatingFaceWindow,NA,NA,NA,81,4,1,happy,77,AM04_S_L,AM04,A,M,S,L,0,,NA,,,,,,,,,,,NA,NA,NA,NA,NA,NA,NA,NA,NA,NA,NA,NA,NA,NA,NA,NA,NA,NA,NA,NA,NA,NA,NA,NA,NA,NA,NA,NA,NA,NA,NA,NA,NA,NA,NA,NA,NA,NA,NA,NA,NA,NA,NA,NA,NA,NA,NA,NA,NA,NA,NA,NA,NA,NA,NA,NA,NA,NA,NA,NA,NA,NA,NA,NA,NA,NA,NA,NA,NA,NA,NA,NA,NA,NA,NA,NA,NA,NA,NA,NA,NA,NA,NA,NA,NA,NA,NA,NA,NA,NA,NA,NA,,,NA
html-keyboard-response,179,281935,0.0-6.0-0.24,7ynpv8c34psnjr1,0,Windows,Chrome,NA,+,NA,,,fixation,NA,NA,NA,NA,NA,NA,,NA,,,,,,,NA,,NA,,,,,,,,,,,NA,NA,NA,NA,NA,NA,NA,NA,NA,NA,NA,NA,NA,NA,NA,NA,NA,NA,NA,NA,NA,NA,NA,NA,NA,NA,NA,NA,NA,NA,NA,NA,NA,NA,NA,NA,NA,NA,NA,NA,NA,NA,NA,NA,NA,NA,NA,NA,NA,NA,NA,NA,NA,NA,NA,NA,NA,NA,NA,NA,NA,NA,NA,NA,NA,NA,NA,NA,NA,NA,NA,NA,NA,NA,NA,NA,NA,NA,NA,NA,NA,NA,NA,NA,NA,NA,NA,NA,NA,NA,NA,NA,,,NA
image-keyboard-response,180,282694,0.0-6.0-1.24,7ynpv8c34psnjr1,0,Windows,Chrome,758.5149999940768,_faces/AF09_R_L.jpg,NA,,,emotionRatingFaceWindow,NA,NA,NA,81,4,1,happy,78,AF09_R_L,AF09,A,F,R,L,0,,NA,,,,,,,,,,,NA,NA,NA,NA,NA,NA,NA,NA,NA,NA,NA,NA,NA,NA,NA,NA,NA,NA,NA,NA,NA,NA,NA,NA,NA,NA,NA,NA,NA,NA,NA,NA,NA,NA,NA,NA,NA,NA,NA,NA,NA,NA,NA,NA,NA,NA,NA,NA,NA,NA,NA,NA,NA,NA,NA,NA,NA,NA,NA,NA,NA,NA,NA,NA,NA,NA,NA,NA,NA,NA,NA,NA,NA,NA,NA,NA,NA,NA,NA,NA,NA,NA,NA,NA,NA,NA,NA,NA,NA,NA,NA,NA,,,NA
html-keyboard-response,181,283694,0.0-6.0-0.25,7ynpv8c34psnjr1,0,Windows,Chrome,NA,+,NA,,,fixation,NA,NA,NA,NA,NA,NA,,NA,,,,,,,NA,,NA,,,,,,,,,,,NA,NA,NA,NA,NA,NA,NA,NA,NA,NA,NA,NA,NA,NA,NA,NA,NA,NA,NA,NA,NA,NA,NA,NA,NA,NA,NA,NA,NA,NA,NA,NA,NA,NA,NA,NA,NA,NA,NA,NA,NA,NA,NA,NA,NA,NA,NA,NA,NA,NA,NA,NA,NA,NA,NA,NA,NA,NA,NA,NA,NA,NA,NA,NA,NA,NA,NA,NA,NA,NA,NA,NA,NA,NA,NA,NA,NA,NA,NA,NA,NA,NA,NA,NA,NA,NA,NA,NA,NA,NA,NA,NA,,,NA
image-keyboard-response,182,284238,0.0-6.0-1.25,7ynpv8c34psnjr1,0,Windows,Chrome,543.1200000457466,_faces/HF05_D_U.jpg,NA,,,emotionRatingFaceWindow,NA,NA,NA,81,4,1,happy,79,HF05_D_U,HF05,H,F,D,U,0,,NA,,,,,,,,,,,NA,NA,NA,NA,NA,NA,NA,NA,NA,NA,NA,NA,NA,NA,NA,NA,NA,NA,NA,NA,NA,NA,NA,NA,NA,NA,NA,NA,NA,NA,NA,NA,NA,NA,NA,NA,NA,NA,NA,NA,NA,NA,NA,NA,NA,NA,NA,NA,NA,NA,NA,NA,NA,NA,NA,NA,NA,NA,NA,NA,NA,NA,NA,NA,NA,NA,NA,NA,NA,NA,NA,NA,NA,NA,NA,NA,NA,NA,NA,NA,NA,NA,NA,NA,NA,NA,NA,NA,NA,NA,NA,NA,,,NA
html-keyboard-response,183,285239,0.0-6.0-0.26,7ynpv8c34psnjr1,0,Windows,Chrome,NA,+,NA,,,fixation,NA,NA,NA,NA,NA,NA,,NA,,,,,,,NA,,NA,,,,,,,,,,,NA,NA,NA,NA,NA,NA,NA,NA,NA,NA,NA,NA,NA,NA,NA,NA,NA,NA,NA,NA,NA,NA,NA,NA,NA,NA,NA,NA,NA,NA,NA,NA,NA,NA,NA,NA,NA,NA,NA,NA,NA,NA,NA,NA,NA,NA,NA,NA,NA,NA,NA,NA,NA,NA,NA,NA,NA,NA,NA,NA,NA,NA,NA,NA,NA,NA,NA,NA,NA,NA,NA,NA,NA,NA,NA,NA,NA,NA,NA,NA,NA,NA,NA,NA,NA,NA,NA,NA,NA,NA,NA,NA,,,NA
image-keyboard-response,184,285822,0.0-6.0-1.26,7ynpv8c34psnjr1,0,Windows,Chrome,582.300000009127,_faces/WF02_S_X.jpg,NA,,,emotionRatingFaceWindow,NA,NA,NA,81,4,1,happy,80,WF02_S_X,WF02,W,F,S,X,0,,NA,,,,,,,,,,,NA,NA,NA,NA,NA,NA,NA,NA,NA,NA,NA,NA,NA,NA,NA,NA,NA,NA,NA,NA,NA,NA,NA,NA,NA,NA,NA,NA,NA,NA,NA,NA,NA,NA,NA,NA,NA,NA,NA,NA,NA,NA,NA,NA,NA,NA,NA,NA,NA,NA,NA,NA,NA,NA,NA,NA,NA,NA,NA,NA,NA,NA,NA,NA,NA,NA,NA,NA,NA,NA,NA,NA,NA,NA,NA,NA,NA,NA,NA,NA,NA,NA,NA,NA,NA,NA,NA,NA,NA,NA,NA,NA,,,NA
html-keyboard-response,185,286824,0.0-6.0-0.27,7ynpv8c34psnjr1,0,Windows,Chrome,NA,+,NA,,,fixation,NA,NA,NA,NA,NA,NA,,NA,,,,,,,NA,,NA,,,,,,,,,,,NA,NA,NA,NA,NA,NA,NA,NA,NA,NA,NA,NA,NA,NA,NA,NA,NA,NA,NA,NA,NA,NA,NA,NA,NA,NA,NA,NA,NA,NA,NA,NA,NA,NA,NA,NA,NA,NA,NA,NA,NA,NA,NA,NA,NA,NA,NA,NA,NA,NA,NA,NA,NA,NA,NA,NA,NA,NA,NA,NA,NA,NA,NA,NA,NA,NA,NA,NA,NA,NA,NA,NA,NA,NA,NA,NA,NA,NA,NA,NA,NA,NA,NA,NA,NA,NA,NA,NA,NA,NA,NA,NA,,,NA
image-keyboard-response,186,287366,0.0-6.0-1.27,7ynpv8c34psnjr1,0,Windows,Chrome,541.99499997776,_faces/HF05_D_X.jpg,NA,,,emotionRatingFaceWindow,NA,NA,NA,81,4,1,happy,81,HF05_D_X,HF05,H,F,D,X,0,,NA,,,,,,,,,,,NA,NA,NA,NA,NA,NA,NA,NA,NA,NA,NA,NA,NA,NA,NA,NA,NA,NA,NA,NA,NA,NA,NA,NA,NA,NA,NA,NA,NA,NA,NA,NA,NA,NA,NA,NA,NA,NA,NA,NA,NA,NA,NA,NA,NA,NA,NA,NA,NA,NA,NA,NA,NA,NA,NA,NA,NA,NA,NA,NA,NA,NA,NA,NA,NA,NA,NA,NA,NA,NA,NA,NA,NA,NA,NA,NA,NA,NA,NA,NA,NA,NA,NA,NA,NA,NA,NA,NA,NA,NA,NA,NA,,,NA
html-keyboard-response,187,288368,0.0-6.0-0.28,7ynpv8c34psnjr1,0,Windows,Chrome,NA,+,NA,,,fixation,NA,NA,NA,NA,NA,NA,,NA,,,,,,,NA,,NA,,,,,,,,,,,NA,NA,NA,NA,NA,NA,NA,NA,NA,NA,NA,NA,NA,NA,NA,NA,NA,NA,NA,NA,NA,NA,NA,NA,NA,NA,NA,NA,NA,NA,NA,NA,NA,NA,NA,NA,NA,NA,NA,NA,NA,NA,NA,NA,NA,NA,NA,NA,NA,NA,NA,NA,NA,NA,NA,NA,NA,NA,NA,NA,NA,NA,NA,NA,NA,NA,NA,NA,NA,NA,NA,NA,NA,NA,NA,NA,NA,NA,NA,NA,NA,NA,NA,NA,NA,NA,NA,NA,NA,NA,NA,NA,,,NA
image-keyboard-response,188,288894,0.0-6.0-1.28,7ynpv8c34psnjr1,0,Windows,Chrome,525.8000000030734,_faces/BF10_F_X.jpg,NA,,,emotionRatingFaceWindow,NA,NA,NA,81,4,1,happy,82,BF10_F_X,BF10,B,F,F,X,0,,NA,,,,,,,,,,,NA,NA,NA,NA,NA,NA,NA,NA,NA,NA,NA,NA,NA,NA,NA,NA,NA,NA,NA,NA,NA,NA,NA,NA,NA,NA,NA,NA,NA,NA,NA,NA,NA,NA,NA,NA,NA,NA,NA,NA,NA,NA,NA,NA,NA,NA,NA,NA,NA,NA,NA,NA,NA,NA,NA,NA,NA,NA,NA,NA,NA,NA,NA,NA,NA,NA,NA,NA,NA,NA,NA,NA,NA,NA,NA,NA,NA,NA,NA,NA,NA,NA,NA,NA,NA,NA,NA,NA,NA,NA,NA,NA,,,NA
html-keyboard-response,189,289895,0.0-6.0-0.29,7ynpv8c34psnjr1,0,Windows,Chrome,NA,+,NA,,,fixation,NA,NA,NA,NA,NA,NA,,NA,,,,,,,NA,,NA,,,,,,,,,,,NA,NA,NA,NA,NA,NA,NA,NA,NA,NA,NA,NA,NA,NA,NA,NA,NA,NA,NA,NA,NA,NA,NA,NA,NA,NA,NA,NA,NA,NA,NA,NA,NA,NA,NA,NA,NA,NA,NA,NA,NA,NA,NA,NA,NA,NA,NA,NA,NA,NA,NA,NA,NA,NA,NA,NA,NA,NA,NA,NA,NA,NA,NA,NA,NA,NA,NA,NA,NA,NA,NA,NA,NA,NA,NA,NA,NA,NA,NA,NA,NA,NA,NA,NA,NA,NA,NA,NA,NA,NA,NA,NA,,,NA
image-keyboard-response,190,290415,0.0-6.0-1.29,7ynpv8c34psnjr1,0,Windows,Chrome,519.4100000080653,_faces/HF09_F_U.jpg,NA,,,emotionRatingFaceWindow,NA,NA,NA,81,4,1,happy,83,HF09_F_U,HF09,H,F,F,U,0,,NA,,,,,,,,,,,NA,NA,NA,NA,NA,NA,NA,NA,NA,NA,NA,NA,NA,NA,NA,NA,NA,NA,NA,NA,NA,NA,NA,NA,NA,NA,NA,NA,NA,NA,NA,NA,NA,NA,NA,NA,NA,NA,NA,NA,NA,NA,NA,NA,NA,NA,NA,NA,NA,NA,NA,NA,NA,NA,NA,NA,NA,NA,NA,NA,NA,NA,NA,NA,NA,NA,NA,NA,NA,NA,NA,NA,NA,NA,NA,NA,NA,NA,NA,NA,NA,NA,NA,NA,NA,NA,NA,NA,NA,NA,NA,NA,,,NA
html-keyboard-response,191,291416,0.0-6.0-0.30,7ynpv8c34psnjr1,0,Windows,Chrome,NA,+,NA,,,fixation,NA,NA,NA,NA,NA,NA,,NA,,,,,,,NA,,NA,,,,,,,,,,,NA,NA,NA,NA,NA,NA,NA,NA,NA,NA,NA,NA,NA,NA,NA,NA,NA,NA,NA,NA,NA,NA,NA,NA,NA,NA,NA,NA,NA,NA,NA,NA,NA,NA,NA,NA,NA,NA,NA,NA,NA,NA,NA,NA,NA,NA,NA,NA,NA,NA,NA,NA,NA,NA,NA,NA,NA,NA,NA,NA,NA,NA,NA,NA,NA,NA,NA,NA,NA,NA,NA,NA,NA,NA,NA,NA,NA,NA,NA,NA,NA,NA,NA,NA,NA,NA,NA,NA,NA,NA,NA,NA,,,NA
image-keyboard-response,192,291982,0.0-6.0-1.30,7ynpv8c34psnjr1,0,Windows,Chrome,565.1899999938905,_faces/AM07_A_X.jpg,NA,,,emotionRatingFaceWindow,NA,NA,NA,81,4,1,happy,84,AM07_A_X,AM07,A,M,A,X,0,,NA,,,,,,,,,,,NA,NA,NA,NA,NA,NA,NA,NA,NA,NA,NA,NA,NA,NA,NA,NA,NA,NA,NA,NA,NA,NA,NA,NA,NA,NA,NA,NA,NA,NA,NA,NA,NA,NA,NA,NA,NA,NA,NA,NA,NA,NA,NA,NA,NA,NA,NA,NA,NA,NA,NA,NA,NA,NA,NA,NA,NA,NA,NA,NA,NA,NA,NA,NA,NA,NA,NA,NA,NA,NA,NA,NA,NA,NA,NA,NA,NA,NA,NA,NA,NA,NA,NA,NA,NA,NA,NA,NA,NA,NA,NA,NA,,,NA
html-keyboard-response,193,292984,0.0-6.0-0.31,7ynpv8c34psnjr1,0,Windows,Chrome,NA,+,NA,,,fixation,NA,NA,NA,NA,NA,NA,,NA,,,,,,,NA,,NA,,,,,,,,,,,NA,NA,NA,NA,NA,NA,NA,NA,NA,NA,NA,NA,NA,NA,NA,NA,NA,NA,NA,NA,NA,NA,NA,NA,NA,NA,NA,NA,NA,NA,NA,NA,NA,NA,NA,NA,NA,NA,NA,NA,NA,NA,NA,NA,NA,NA,NA,NA,NA,NA,NA,NA,NA,NA,NA,NA,NA,NA,NA,NA,NA,NA,NA,NA,NA,NA,NA,NA,NA,NA,NA,NA,NA,NA,NA,NA,NA,NA,NA,NA,NA,NA,NA,NA,NA,NA,NA,NA,NA,NA,NA,NA,,,NA
image-keyboard-response,194,293454,0.0-6.0-1.31,7ynpv8c34psnjr1,0,Windows,Chrome,469.3400000105612,_faces/HM09_R_X.jpg,NA,,,emotionRatingFaceWindow,NA,NA,NA,81,4,1,happy,85,HM09_R_X,HM09,H,M,R,X,0,,NA,,,,,,,,,,,NA,NA,NA,NA,NA,NA,NA,NA,NA,NA,NA,NA,NA,NA,NA,NA,NA,NA,NA,NA,NA,NA,NA,NA,NA,NA,NA,NA,NA,NA,NA,NA,NA,NA,NA,NA,NA,NA,NA,NA,NA,NA,NA,NA,NA,NA,NA,NA,NA,NA,NA,NA,NA,NA,NA,NA,NA,NA,NA,NA,NA,NA,NA,NA,NA,NA,NA,NA,NA,NA,NA,NA,NA,NA,NA,NA,NA,NA,NA,NA,NA,NA,NA,NA,NA,NA,NA,NA,NA,NA,NA,NA,,,NA
html-keyboard-response,195,294455,0.0-6.0-0.32,7ynpv8c34psnjr1,0,Windows,Chrome,NA,+,NA,,,fixation,NA,NA,NA,NA,NA,NA,,NA,,,,,,,NA,,NA,,,,,,,,,,,NA,NA,NA,NA,NA,NA,NA,NA,NA,NA,NA,NA,NA,NA,NA,NA,NA,NA,NA,NA,NA,NA,NA,NA,NA,NA,NA,NA,NA,NA,NA,NA,NA,NA,NA,NA,NA,NA,NA,NA,NA,NA,NA,NA,NA,NA,NA,NA,NA,NA,NA,NA,NA,NA,NA,NA,NA,NA,NA,NA,NA,NA,NA,NA,NA,NA,NA,NA,NA,NA,NA,NA,NA,NA,NA,NA,NA,NA,NA,NA,NA,NA,NA,NA,NA,NA,NA,NA,NA,NA,NA,NA,,,NA
image-keyboard-response,196,294990,0.0-6.0-1.32,7ynpv8c34psnjr1,0,Windows,Chrome,534.3400000128895,_faces/BM17_S_X.jpg,NA,,,emotionRatingFaceWindow,NA,NA,NA,81,4,1,happy,86,BM17_S_X,BM17,B,M,S,X,0,,NA,,,,,,,,,,,NA,NA,NA,NA,NA,NA,NA,NA,NA,NA,NA,NA,NA,NA,NA,NA,NA,NA,NA,NA,NA,NA,NA,NA,NA,NA,NA,NA,NA,NA,NA,NA,NA,NA,NA,NA,NA,NA,NA,NA,NA,NA,NA,NA,NA,NA,NA,NA,NA,NA,NA,NA,NA,NA,NA,NA,NA,NA,NA,NA,NA,NA,NA,NA,NA,NA,NA,NA,NA,NA,NA,NA,NA,NA,NA,NA,NA,NA,NA,NA,NA,NA,NA,NA,NA,NA,NA,NA,NA,NA,NA,NA,,,NA
html-keyboard-response,197,295990,0.0-6.0-0.33,7ynpv8c34psnjr1,0,Windows,Chrome,NA,+,NA,,,fixation,NA,NA,NA,NA,NA,NA,,NA,,,,,,,NA,,NA,,,,,,,,,,,NA,NA,NA,NA,NA,NA,NA,NA,NA,NA,NA,NA,NA,NA,NA,NA,NA,NA,NA,NA,NA,NA,NA,NA,NA,NA,NA,NA,NA,NA,NA,NA,NA,NA,NA,NA,NA,NA,NA,NA,NA,NA,NA,NA,NA,NA,NA,NA,NA,NA,NA,NA,NA,NA,NA,NA,NA,NA,NA,NA,NA,NA,NA,NA,NA,NA,NA,NA,NA,NA,NA,NA,NA,NA,NA,NA,NA,NA,NA,NA,NA,NA,NA,NA,NA,NA,NA,NA,NA,NA,NA,NA,,,NA
image-keyboard-response,198,296510,0.0-6.0-1.33,7ynpv8c34psnjr1,0,Windows,Chrome,519.1150000318885,_faces/AF09_R_X.jpg,NA,,,emotionRatingFaceWindow,NA,NA,NA,81,4,1,happy,87,AF09_R_X,AF09,A,F,R,X,0,,NA,,,,,,,,,,,NA,NA,NA,NA,NA,NA,NA,NA,NA,NA,NA,NA,NA,NA,NA,NA,NA,NA,NA,NA,NA,NA,NA,NA,NA,NA,NA,NA,NA,NA,NA,NA,NA,NA,NA,NA,NA,NA,NA,NA,NA,NA,NA,NA,NA,NA,NA,NA,NA,NA,NA,NA,NA,NA,NA,NA,NA,NA,NA,NA,NA,NA,NA,NA,NA,NA,NA,NA,NA,NA,NA,NA,NA,NA,NA,NA,NA,NA,NA,NA,NA,NA,NA,NA,NA,NA,NA,NA,NA,NA,NA,NA,,,NA
html-keyboard-response,199,297511,0.0-6.0-0.34,7ynpv8c34psnjr1,0,Windows,Chrome,NA,+,NA,,,fixation,NA,NA,NA,NA,NA,NA,,NA,,,,,,,NA,,NA,,,,,,,,,,,NA,NA,NA,NA,NA,NA,NA,NA,NA,NA,NA,NA,NA,NA,NA,NA,NA,NA,NA,NA,NA,NA,NA,NA,NA,NA,NA,NA,NA,NA,NA,NA,NA,NA,NA,NA,NA,NA,NA,NA,NA,NA,NA,NA,NA,NA,NA,NA,NA,NA,NA,NA,NA,NA,NA,NA,NA,NA,NA,NA,NA,NA,NA,NA,NA,NA,NA,NA,NA,NA,NA,NA,NA,NA,NA,NA,NA,NA,NA,NA,NA,NA,NA,NA,NA,NA,NA,NA,NA,NA,NA,NA,,,NA
image-keyboard-response,200,298526,0.0-6.0-1.34,7ynpv8c34psnjr1,0,Windows,Chrome,1014.1249999869615,_faces/HM08_H_U.jpg,NA,,,emotionRatingFaceWindow,NA,NA,NA,80,4,1,happy,88,HM08_H_U,HM08,H,M,H,U,1,,NA,,,,,,,,,,,NA,NA,NA,NA,NA,NA,NA,NA,NA,NA,NA,NA,NA,NA,NA,NA,NA,NA,NA,NA,NA,NA,NA,NA,NA,NA,NA,NA,NA,NA,NA,NA,NA,NA,NA,NA,NA,NA,NA,NA,NA,NA,NA,NA,NA,NA,NA,NA,NA,NA,NA,NA,NA,NA,NA,NA,NA,NA,NA,NA,NA,NA,NA,NA,NA,NA,NA,NA,NA,NA,NA,NA,NA,NA,NA,NA,NA,NA,NA,NA,NA,NA,NA,NA,NA,NA,NA,NA,NA,NA,NA,NA,,,NA
